Subject,Block,Trial,Stimulus,Group,RT,Acc,Location,Eye,Response
1,1,1,f42887_e_021,1,1.389223244,1,10,2,4
1,1,2,f42887_e_203,1,1.084467741,1,9,2,3
1,1,3,f42887_e_111,1,1.245008425,1,9,2,3
1,1,4,f42887_e_176,1,1.075122793,1,10,1,4
1,1,5,f42887_e_216,1,1.265364714,1,9,1,3
1,1,6,f42887_e_062,1,1.782973124,1,9,1,3
1,1,7,f42887_e_253,1,1.604812117,1,9,1,3
1,1,8,f42887_e_002,1,0.905867237,1,10,1,4
1,1,9,f42887_e_091,1,1.494666199,1,9,1,3
1,1,10,f42887_e_243,1,1.394861669,1,10,2,4
1,1,11,f42887_e_120,1,1.204951,1,10,2,4
1,1,12,f42887_e_141,1,1.24483077,1,9,1,3
1,1,13,f42887_e_219,1,1.104665707,1,10,2,4
1,1,14,f42887_e_278,1,1.10465203,1,10,2,4
1,1,15,f42887_e_295,1,0.794427857,1,10,1,4
1,1,16,f42887_e_240,1,0.974230556,1,10,1,4
1,1,17,f42887_e_189,1,1.284323567,1,9,1,3
1,1,18,f42887_e_188,1,1.054129376,1,9,1,3
1,1,19,f42887_e_071,1,1.424152789,1,9,2,3
1,1,20,f42887_e_275,1,1.04396591,1,10,1,4
1,1,21,f42887_e_207,1,1.144015869,1,10,1,4
1,1,22,f42887_e_136,1,1.213954842,1,9,1,3
1,1,23,f42887_e_163,1,2.814131444,1,10,2,4
1,1,24,f42887_e_094,1,1.293704846,1,9,1,3
1,1,25,f42887_e_027,1,1.303949177,1,9,2,3
1,1,26,f42887_e_291,1,1.093067823,1,9,2,3
1,1,27,f42887_e_117,1,0.97325015,1,10,2,4
1,1,28,f42887_e_092,1,0.973386699,1,10,2,4
1,1,29,f42887_e_014,1,1.062791019,1,9,2,3
1,1,30,f42887_e_038,1,1.032857331,1,9,2,3
1,1,31,f42887_e_005,1,1.503382515,1,9,1,3
1,1,32,f42887_e_050,1,1.043117429,1,10,1,4
1,1,33,f42887_e_037,1,1.282931729,1,10,2,4
1,1,34,f42887_e_233,1,1.532949,1,9,1,3
1,1,35,f42887_e_030,1,1.01244777,1,9,1,3
1,1,36,f42887_e_056,1,0.912273124,1,10,1,4
1,1,37,f42887_e_206,1,0.9525135,1,9,1,3
1,1,38,f42887_e_020,1,1.012420891,1,10,2,4
1,1,39,f42887_e_055,1,1.022418342,1,10,1,4
1,1,40,f42887_e_133,1,0.982265316,1,9,1,3
1,1,41,f42887_e_047,1,1.372096857,1,9,1,3
1,1,42,f42887_e_191,1,1.232266707,1,9,2,3
1,1,43,f42887_e_211,1,0.942069977,1,10,1,4
1,1,44,f42887_e_257,1,1.472286489,1,9,2,3
1,1,45,f42887_e_227,1,0.811885951,1,10,1,4
1,1,46,f42887_e_126,1,0.961766368,1,9,2,3
1,1,47,f42887_e_068,1,0.951644056,1,10,1,4
1,1,48,f42887_e_069,1,1.622091256,1,9,1,3
1,1,49,f42887_e_061,1,1.411896436,1,9,1,3
1,1,50,f42887_e_267,1,1.171536962,1,9,2,3
1,1,51,f42887_e_271,1,1.310814433,1,9,1,3
1,1,52,f42887_e_059,1,1.251551583,1,9,2,3
1,1,53,f42887_e_100,1,1.371694639,1,9,1,3
1,1,54,f42887_e_282,1,1.351434865,1,9,2,3
1,1,55,f42887_e_272,1,1.64156203,1,9,1,3
1,1,56,f42887_e_258,1,1.250998504,1,10,2,4
1,1,57,f42887_e_164,1,0.970609203,1,10,2,4
1,1,58,f42887_e_138,1,0.820342729,1,10,1,4
1,1,59,f42887_e_210,1,1.350926165,1,10,1,4
1,1,60,f42887_e_040,1,1.240909199,1,10,1,4
1,1,61,f42887_e_006,1,1.270856267,1,9,1,3
1,1,62,f42887_e_289,1,1.060554004,1,9,1,3
1,1,63,f42887_e_015,1,1.040644699,1,9,1,3
1,1,64,f42887_e_200,1,1.040613665,1,10,1,4
1,1,65,f42887_e_193,1,1.300335955,1,10,2,4
1,1,66,f42887_e_134,1,1.270448398,1,9,2,3
1,1,67,f42887_e_260,1,0.930227383,1,10,2,4
1,1,68,f42887_e_016,1,0.949532579,1,9,1,3
1,1,69,f42887_e_194,1,1.270275034,1,10,2,4
1,1,70,f42887_e_124,1,2.990775053,1,9,1,3
1,1,71,f42887_e_222,1,0.969921549,1,9,2,3
1,1,72,f42887_e_162,1,1.100131116,1,10,1,4
1,1,73,f42887_e_106,1,1.119768094,1,10,2,4
1,1,74,f42887_e_277,1,1.370005124,1,10,2,4
1,1,75,f42887_e_118,1,2.390231308,1,10,1,4
1,1,76,f42887_e_084,1,2.910330872,1,9,1,3
1,1,77,f42887_e_115,1,1.339705662,1,10,2,4
1,1,78,f42887_e_284,1,1.879747135,1,9,2,3
1,1,79,f42887_e_214,1,1.109511594,1,10,1,4
1,1,80,f42887_e_074,1,1.129422237,1,10,1,4
1,1,81,f42887_e_072,1,1.039384256,1,10,1,4
1,1,82,f42887_e_010,1,1.559750966,1,9,2,3
1,1,83,f42887_e_261,1,1.028908872,1,10,1,4
1,1,84,f42887_e_205,1,0.948760549,1,10,2,4
1,1,85,f42887_e_034,1,1.269254752,1,9,2,3
1,1,86,f42887_e_085,1,1.679355617,1,9,2,3
1,1,87,f42887_e_065,1,1.1388165,1,9,2,3
1,1,88,f42887_e_228,1,0.908552763,1,9,2,3
1,1,89,f42887_e_269,1,0.968545233,1,10,1,4
1,1,90,f42887_e_039,1,1.208817677,1,9,2,3
1,1,91,f42887_e_131,1,1.91854338,1,9,1,3
1,1,92,f42887_e_178,1,0.92856718,1,9,2,3
1,1,93,f42887_e_209,1,1.408700774,1,9,2,3
1,1,94,f42887_e_158,1,1.154193752,1,10,2,4
1,1,95,f42887_e_190,1,1.13856868,1,10,2,4
1,1,96,f42887_e_280,1,1.848661853,1,9,2,3
1,1,97,f42887_e_051,1,1.608461838,1,9,2,3
1,1,98,f42887_e_070,1,2.178133549,1,9,1,3
1,1,99,f42887_e_079,1,1.118280951,1,10,2,4
1,1,100,f42887_e_109,1,1.077012135,1,10,2,4
1,1,101,f42887_e_250,1,1.157914921,1,10,2,4
1,1,102,f42887_e_011,1,1.178035184,1,10,2,4
1,1,103,f42887_e_102,1,1.284012357,1,9,1,3
1,1,104,f42887_e_017,1,0.987493275,1,10,1,4
1,1,105,f42887_e_285,1,1.875329996,1,9,2,3
1,1,106,f42887_e_192,1,1.527739936,1,9,1,3
1,1,107,f42887_e_220,1,0.995987522,1,10,1,4
1,1,108,f42887_e_182,1,1.632613669,1,9,2,3
1,1,109,f42887_e_000,1,2.777317526,1,9,1,3
1,1,110,f42887_e_042,1,1.216998951,1,10,2,4
1,1,111,f42887_e_244,1,1.077014729,1,9,2,3
1,1,112,f42887_e_263,1,1.256708094,1,9,1,3
1,1,113,f42887_e_232,1,1.476921846,1,10,2,4
1,1,114,f42887_e_026,1,1.709011639,1,9,2,3
1,1,115,f42887_e_223,1,1.181546274,1,9,2,3
1,1,116,f42887_e_064,1,1.657014537,1,10,2,4
1,1,117,f42887_e_290,1,4.499828019,1,9,1,3
1,1,118,f42887_e_107,1,2.286633034,1,9,1,3
1,1,119,f42887_e_296,1,1.696498489,1,9,2,3
1,1,120,f42887_e_081,1,2.429057282,1,9,2,3
1,1,121,f42887_e_249,1,1.686698425,1,10,1,4
1,1,122,f42887_e_001,1,1.246431545,1,9,2,3
1,1,123,f42887_e_281,1,1.326339786,1,10,1,4
1,1,124,f42887_e_173,1,1.436469293,1,10,1,4
1,1,125,f42887_e_104,1,1.296005297,1,9,2,3
1,1,126,f42887_e_075,1,1.516184312,1,10,2,4
1,1,127,f42887_e_199,1,1.435930511,1,9,1,3
1,1,128,f42887_e_185,1,1.2060095,1,10,1,4
1,1,129,f42887_e_090,1,1.065901793,1,10,2,4
1,1,130,f42887_e_073,1,1.325867372,1,10,1,4
1,1,131,f42887_e_019,1,0.865115842,1,10,2,4
1,1,132,f42887_e_097,1,1.455473613,1,9,1,3
1,1,133,f42887_e_251,1,1.27574215,1,10,2,4
1,1,134,f42887_e_170,1,0.885415925,1,9,2,3
1,1,135,f42887_e_273,1,1.375790429,1,9,1,3
1,1,136,f42887_e_217,1,1.075565955,1,9,2,3
1,1,137,f42887_e_238,1,1.145357387,1,10,2,4
1,1,138,f42887_e_142,1,1.085319774,1,10,1,4
1,1,139,f42887_e_246,1,1.475340346,1,10,1,4
1,1,140,f42887_e_043,1,1.355202372,1,10,1,4
1,1,141,f42887_e_266,1,1.176797759,1,9,2,3
1,1,142,f42887_e_113,1,1.195206323,1,9,2,3
1,1,143,f42887_e_201,1,1.815235214,1,9,1,3
1,1,144,f42887_e_125,1,1.425057237,1,9,2,3
1,1,145,f42887_e_259,1,1.765123049,1,10,1,4
1,1,146,f42887_e_264,1,1.224836895,1,10,2,4
1,1,147,f42887_e_274,1,2.805251711,1,9,1,3
1,1,148,f42887_e_172,1,1.094771079,1,10,1,4
1,1,149,f42887_e_187,1,1.503475699,1,9,1,3
1,1,150,f42887_e_098,1,1.39452341,1,9,1,3
1,1,151,f42887_e_287,1,1.284451334,1,9,1,3
1,1,152,f42887_e_242,1,1.294413248,1,10,2,4
1,1,153,f42887_e_067,1,1.19441023,1,9,1,3
1,1,154,f42887_e_077,1,1.084190805,1,9,2,3
1,1,155,f42887_e_041,1,1.383844368,1,10,2,4
1,1,156,f42887_e_096,1,3.784960639,1,10,2,4
1,1,157,f42887_e_230,1,1.533559805,1,10,2,4
1,1,158,f42887_e_288,1,1.273547015,1,9,2,3
1,1,159,f42887_e_226,1,1.603519222,1,9,1,3
1,1,160,f42887_e_123,1,1.003773865,1,10,1,4
1,1,161,f42887_e_087,1,0.963741357,1,10,1,4
1,1,162,f42887_e_149,1,0.875302395,1,10,1,4
1,1,163,f42887_e_252,1,0.89366609,1,10,2,4
1,1,164,f42887_e_294,1,1.593574237,1,9,1,3
1,1,165,f42887_e_298,1,1.173351463,1,9,2,3
1,1,166,f42887_e_009,1,1.443350245,1,10,1,4
1,1,167,f42887_e_144,1,1.523346613,1,10,2,4
1,1,168,f42887_e_130,1,2.203566722,1,10,1,4
1,1,169,f42887_e_256,1,2.133556906,1,10,1,4
1,1,170,f42887_e_147,1,1.423115226,1,9,1,3
1,1,171,f42887_e_255,1,0.830436,1,9,2,3
1,1,172,f42887_e_053,1,0.982591211,1,9,2,3
1,1,173,f42887_e_154,1,1.022648466,1,10,1,4
1,1,174,f42887_e_143,1,1.412926071,1,9,2,3
1,1,175,f42887_e_283,1,1.212704433,1,10,2,4
1,1,176,f42887_e_139,1,1.082746872,1,9,1,3
1,1,177,f42887_e_128,1,1.722424526,1,9,2,3
1,1,178,f42887_e_229,1,1.382736534,1,9,1,3
1,1,179,f42887_e_265,1,1.412244075,1,10,2,4
1,1,180,f42887_e_151,1,1.862589297,1,10,1,4
1,1,181,f42887_e_204,1,0.921876267,1,10,1,4
1,1,182,f42887_e_213,1,1.472129429,1,9,1,3
1,1,183,f42887_e_174,1,0.731480323,1,10,1,4
1,1,184,f42887_e_045,1,0.951415759,1,10,1,4
1,1,185,f42887_e_101,1,2.302277271,1,10,1,4
1,1,186,f42887_e_157,1,1.801830515,1,10,2,4
1,1,187,f42887_e_140,1,1.061629917,1,10,2,4
1,1,188,f42887_e_135,1,1.161610538,1,10,1,4
1,1,189,f42887_e_234,1,1.361547947,1,9,1,3
1,1,190,f42887_e_048,1,1.031452459,1,9,2,3
1,1,191,f42887_e_181,1,1.421558511,1,10,1,4
1,1,192,f42887_e_184,1,1.731304282,1,10,2,4
1,1,193,f42887_e_286,1,1.291000549,1,10,2,4
1,1,194,f42887_e_231,1,1.391320636,1,9,2,3
1,1,195,f42887_e_035,1,1.311151184,1,9,2,3
1,1,196,f42887_e_169,1,1.390734094,1,9,2,3
1,1,197,f42887_e_137,1,1.191016636,1,10,1,4
1,1,198,f42887_e_112,1,1.690976989,1,9,2,3
1,1,199,f42887_e_031,1,1.04066618,1,10,2,4
1,1,200,f42887_e_103,1,1.200858147,1,10,2,4
1,1,201,f42887_e_121,1,1.310444116,1,10,2,4
1,1,202,f42887_e_254,1,0.600545038,0,10,2,3
1,1,203,f42887_e_241,1,1.420531925,1,10,1,4
1,1,204,f42887_e_276,1,1.020534098,1,10,2,4
1,1,205,f42887_e_195,1,1.050390827,1,9,2,3
1,1,206,f42887_e_165,1,0.940070117,1,10,2,4
1,1,207,f42887_e_196,1,1.410290774,1,9,1,3
1,1,208,f42887_e_268,1,0.93983494,1,9,1,3
1,1,209,f42887_e_063,1,0.889674165,1,10,1,4
1,1,210,f42887_e_215,1,1.169590072,1,9,2,3
1,1,211,f42887_e_044,1,1.220153925,1,10,1,4
1,1,212,f42887_e_177,1,1.410311241,1,10,1,4
1,1,213,f42887_e_054,1,1.020101647,1,10,2,4
1,1,214,f42887_e_025,1,1.229734628,1,10,2,4
1,1,215,f42887_e_029,1,1.224769793,1,9,2,3
1,1,216,f42887_e_167,1,1.269916489,1,10,2,4
1,1,217,f42887_e_018,1,0.839771895,1,10,2,4
1,1,218,f42887_e_057,1,0.809539489,1,10,2,4
1,1,219,f42887_e_089,1,0.869543827,1,10,1,4
1,1,220,f42887_e_132,1,0.814595887,1,10,2,4
1,1,221,f42887_e_060,1,1.309153169,1,9,1,3
1,1,222,f42887_e_197,1,1.079283256,1,10,2,4
1,1,223,f42887_e_270,1,1.069287865,1,10,1,4
1,1,224,f42887_e_095,1,1.27921918,1,10,2,4
1,1,225,f42887_e_237,1,0.988989226,1,10,1,4
1,1,226,f42887_e_166,1,1.068895421,1,10,1,4
1,1,227,f42887_e_161,1,1.358850617,1,9,2,3
1,1,228,f42887_e_247,1,1.848537575,1,9,1,3
1,1,229,f42887_e_292,1,1.298813552,1,9,1,3
1,1,230,f42887_e_033,1,1.869050737,1,9,2,3
1,1,231,f42887_e_221,1,1.388721827,1,10,2,4
1,1,232,f42887_e_076,1,1.458258816,1,9,2,3
1,1,233,f42887_e_156,1,0.858337481,1,10,1,4
1,1,234,f42887_e_023,1,1.108392316,1,10,1,4
1,1,235,f42887_e_171,1,1.645324692,1,10,2,4
1,1,236,f42887_e_155,1,2.508234583,1,10,1,4
1,1,237,f42887_e_122,1,1.597818763,1,9,1,3
1,1,238,f42887_e_175,1,1.377879154,1,9,2,3
1,1,239,f42887_e_086,1,1.027942049,1,10,2,4
1,1,240,f42887_e_186,1,1.867920647,1,9,1,3
1,1,241,f42887_e_078,1,1.097804451,1,10,1,4
1,1,242,f42887_e_013,1,1.407873071,1,9,2,3
1,1,243,f42887_e_080,1,1.457932801,1,9,1,3
1,1,244,f42887_e_202,1,0.887401057,1,10,1,4
1,1,245,f42887_e_180,1,2.097881391,1,10,1,4
1,1,246,f42887_e_235,1,2.087632169,1,10,1,4
1,1,247,f42887_e_088,1,1.627517346,1,9,2,3
1,1,248,f42887_e_028,1,1.087417398,1,10,1,4
1,1,249,f42887_e_066,1,1.39742291,1,10,2,4
1,1,250,f42887_e_024,1,1.647561154,1,10,1,4
1,1,251,f42887_e_032,1,1.176126846,1,9,2,3
1,1,252,f42887_e_245,1,0.906908436,1,10,1,4
1,1,253,f42887_e_218,1,2.997007248,1,9,1,3
1,1,254,f42887_e_212,1,1.367034748,1,9,1,3
1,1,255,f42887_e_225,1,1.826954651,1,9,1,3
1,1,256,f42887_e_036,1,1.376957778,1,10,1,4
1,1,257,f42887_e_004,1,1.433807684,0,9,1,4
1,1,258,f42887_e_116,1,1.556588004,0,9,1,4
1,1,259,f42887_e_007,1,1.326767368,1,10,1,4
1,1,260,f42887_e_248,1,1.105841801,1,10,2,4
1,1,261,f42887_e_099,1,1.886339703,1,9,1,3
1,1,262,f42887_e_119,1,2.036489917,1,9,2,3
1,1,263,f42887_e_279,1,1.046023617,1,10,1,4
1,1,264,f42887_e_049,1,1.216193669,1,10,1,4
1,1,265,f42887_e_022,1,0.876289019,1,10,1,4
1,1,266,f42887_e_198,1,3.026850568,1,9,1,3
1,1,267,f42887_e_236,1,1.086121079,1,10,2,4
1,1,268,f42887_e_297,1,0.986134793,1,10,1,4
1,1,269,f42887_e_127,1,1.075777072,1,10,1,4
1,1,270,f42887_e_058,1,0.865542744,1,9,2,3
1,1,271,f42887_e_046,1,0.895877759,1,10,2,4
1,1,272,f42887_e_146,1,1.156159613,1,10,2,4
1,1,273,f42887_e_262,1,1.565698523,1,9,1,3
1,1,274,f42887_e_160,1,0.955297658,1,10,1,4
1,1,275,f42887_e_159,1,0.955586752,1,9,2,3
1,1,276,f42887_e_052,1,1.115388459,1,9,2,3
1,1,277,f42887_e_003,1,1.025362549,1,10,1,4
1,1,278,f42887_e_114,1,1.165324094,1,10,1,4
1,1,279,f42887_e_150,1,1.254888398,1,10,2,4
1,1,280,f42887_e_208,1,1.061928312,1,9,2,3
1,1,281,f42887_e_082,1,1.315194154,1,9,1,3
1,1,282,f42887_e_224,1,1.155209271,1,10,1,4
1,1,283,f42887_e_239,1,2.385311131,1,9,1,3
1,1,284,f42887_e_145,1,1.244878459,1,10,2,4
1,1,285,f42887_e_299,1,1.114626038,1,10,1,4
1,1,286,f42887_e_152,1,1.534860237,1,9,1,3
1,1,287,f42887_e_153,1,1.364408534,1,10,2,4
1,1,288,f42887_e_148,1,1.414172169,1,9,1,3
1,1,289,f42887_e_110,1,1.354528222,1,9,2,3
1,1,290,f42887_e_093,1,1.324378797,1,10,2,4
1,1,291,f42887_e_179,1,1.634478233,1,9,2,3
1,1,292,f42887_e_008,1,1.704620034,1,9,1,3
1,1,293,f42887_e_168,1,1.113971338,1,10,2,4
1,1,294,f42887_e_012,1,1.503857812,1,9,1,3
1,1,295,f42887_e_129,1,1.124154741,1,10,1,4
1,1,296,f42887_e_083,1,2.512910647,1,9,2,3
1,1,297,f42887_e_183,1,1.894102586,1,9,1,3
1,1,298,f42887_e_293,1,2.124210346,1,10,2,4
1,1,299,f42887_e_105,1,1.273816624,1,9,2,3
1,1,300,f42887_e_108,1,1.503892071,1,10,2,4
1,2,301,f42887_e_240,1,1.330293286,1,9,1,3
1,2,302,f42887_e_256,1,1.26426947,1,9,2,3
1,2,303,f42887_e_272,1,0.933312797,1,9,2,3
1,2,304,f42887_e_117,1,1.08338994,1,9,1,3
1,2,305,f42887_e_164,1,0.993484654,1,10,1,4
1,2,306,f42887_e_140,1,1.083334921,1,10,2,4
1,2,307,f42887_e_053,1,1.412855647,1,10,1,4
1,2,308,f42887_e_202,1,1.502984042,1,10,1,4
1,2,309,f42887_e_207,1,1.162430992,1,9,2,3
1,2,310,f42887_e_157,1,0.862388466,1,10,1,4
1,2,311,f42887_e_184,1,0.962926575,1,10,1,4
1,2,312,f42887_e_109,1,1.333056872,1,9,2,3
1,2,313,f42887_e_165,1,0.982679353,1,10,2,4
1,2,314,f42887_e_080,1,1.677832105,1,10,1,4
1,2,315,f42887_e_011,1,1.112821158,1,10,1,4
1,2,316,f42887_e_205,1,1.97272885,1,10,1,4
1,2,317,f42887_e_054,1,1.11245694,1,10,1,4
1,2,318,f42887_e_125,1,1.302121335,1,9,1,3
1,2,319,f42887_e_021,1,1.372089398,1,9,1,3
1,2,320,f42887_e_153,1,1.212131838,1,10,1,4
1,2,321,f42887_e_252,1,0.911620669,1,9,2,3
1,2,322,f42887_e_099,1,1.222240064,1,9,2,3
1,2,323,f42887_e_141,1,1.011996571,1,10,2,4
1,2,324,f42887_e_208,1,0.931757004,1,9,2,3
1,2,325,f42887_e_170,1,0.911872748,1,9,2,3
1,2,326,f42887_e_146,1,1.358199252,1,9,2,3
1,2,327,f42887_e_178,1,1.111703493,1,10,1,4
1,2,328,f42887_e_126,1,1.441925977,1,9,2,3
1,2,329,f42887_e_061,1,1.031410293,1,10,2,4
1,2,330,f42887_e_226,1,1.041246718,1,10,2,4
1,2,331,f42887_e_051,1,1.201038669,1,9,1,3
1,2,332,f42887_e_168,1,0.90130035,1,9,1,3
1,2,333,f42887_e_174,1,0.841271038,1,9,2,3
1,2,334,f42887_e_188,1,1.080887139,1,9,2,3
1,2,335,f42887_e_179,1,1.62506847,1,9,1,3
1,2,336,f42887_e_095,1,1.328785507,1,10,1,4
1,2,337,f42887_e_196,1,1.450811684,1,9,2,3
1,2,338,f42887_e_024,1,0.980538692,1,9,2,3
1,2,339,f42887_e_241,1,2.111215425,1,9,2,3
1,2,340,f42887_e_130,1,1.671036966,1,9,1,3
1,2,341,f42887_e_255,1,0.960957782,1,10,1,4
1,2,342,f42887_e_233,1,1.470757996,1,9,2,3
1,2,343,f42887_e_038,1,1.030596504,1,9,2,3
1,2,344,f42887_e_096,1,1.050694662,1,9,2,3
1,2,345,f42887_e_154,1,1.040339658,1,9,2,3
1,2,346,f42887_e_151,1,1.310071681,1,10,1,4
1,2,347,f42887_e_148,1,1.140403774,1,9,1,3
1,2,348,f42887_e_102,1,0.940189477,1,9,1,3
1,2,349,f42887_e_064,1,1.080233132,1,10,2,4
1,2,350,f42887_e_081,1,1.220212161,1,10,1,4
1,2,351,f42887_e_094,1,0.996979605,1,10,1,4
1,2,352,f42887_e_106,1,1.250243695,1,9,2,3
1,2,353,f42887_e_199,1,1.290030116,1,10,1,4
1,2,354,f42887_e_026,1,1.300102966,1,10,2,4
1,2,355,f42887_e_006,1,1.009872774,1,9,1,3
1,2,356,f42887_e_217,1,1.269722158,1,9,2,3
1,2,357,f42887_e_246,1,1.038790135,1,10,2,4
1,2,358,f42887_e_197,1,1.499907989,1,10,1,4
1,2,359,f42887_e_293,1,1.079086019,1,9,1,3
1,2,360,f42887_e_087,1,1.079235094,1,10,1,4
1,2,361,f42887_e_085,1,1.409438812,1,9,2,3
1,2,362,f42887_e_297,1,1.30941438,1,9,1,3
1,2,363,f42887_e_001,1,1.899471827,1,9,2,3
1,2,364,f42887_e_049,1,1.179048135,1,9,2,3
1,2,365,f42887_e_158,1,1.999022624,1,9,1,3
1,2,366,f42887_e_077,1,1.316279537,1,10,2,4
1,2,367,f42887_e_280,1,1.068983109,1,10,2,4
1,2,368,f42887_e_147,1,1.329098947,1,9,2,3
1,2,369,f42887_e_234,1,1.119047541,1,9,1,3
1,2,370,f42887_e_248,1,1.338881241,1,10,2,4
1,2,371,f42887_e_201,1,1.128599072,1,9,2,3
1,2,372,f42887_e_131,1,0.928562583,1,9,2,3
1,2,373,f42887_e_210,1,1.008563729,1,9,2,3
1,2,374,f42887_e_040,1,1.527969286,1,9,2,3
1,2,375,f42887_e_046,1,1.007873188,1,10,2,4
1,2,376,f42887_e_247,1,1.137872782,1,10,2,4
1,2,377,f42887_e_253,1,1.15794618,1,10,2,4
1,2,378,f42887_e_223,1,1.76849282,1,10,2,4
1,2,379,f42887_e_134,1,1.477609632,1,9,2,3
1,2,380,f42887_e_032,1,1.340117989,1,9,1,3
1,2,381,f42887_e_144,1,1.22776947,1,10,1,4
1,2,382,f42887_e_027,1,1.76951797,1,9,1,3
1,2,383,f42887_e_185,1,1.087693654,1,9,1,3
1,2,384,f42887_e_103,1,0.947101564,1,9,1,3
1,2,385,f42887_e_270,1,1.087186372,1,10,2,4
1,2,386,f42887_e_237,1,1.367402361,1,9,2,3
1,2,387,f42887_e_120,1,1.177476808,1,9,2,3
1,2,388,f42887_e_070,1,0.987439214,1,10,1,4
1,2,389,f42887_e_162,1,1.077328319,1,9,2,3
1,2,390,f42887_e_016,1,0.916619523,1,9,1,3
1,2,391,f42887_e_097,1,0.916867549,1,10,1,4
1,2,392,f42887_e_043,1,1.126759549,1,9,1,3
1,2,393,f42887_e_261,1,1.037179425,1,10,1,4
1,2,394,f42887_e_279,1,1.237100932,1,10,2,4
1,2,395,f42887_e_267,1,1.307015169,1,9,1,3
1,2,396,f42887_e_019,1,1.016421568,1,10,2,4
1,2,397,f42887_e_127,1,1.186749075,1,9,2,3
1,2,398,f42887_e_122,1,0.893031541,1,10,2,4
1,2,399,f42887_e_114,1,1.266855011,1,9,1,3
1,2,400,f42887_e_003,1,1.195958797,1,10,1,4
1,2,401,f42887_e_107,1,1.350349331,1,10,1,4
1,2,402,f42887_e_089,1,1.24679,1,10,2,4
1,2,403,f42887_e_116,1,2.016006165,1,10,2,4
1,2,404,f42887_e_010,1,2.026528823,1,9,1,3
1,2,405,f42887_e_090,1,1.136353767,1,10,2,4
1,2,406,f42887_e_007,1,1.22616888,1,9,2,3
1,2,407,f42887_e_245,1,1.036077094,1,9,2,3
1,2,408,f42887_e_071,1,1.075954391,1,9,1,3
1,2,409,f42887_e_136,1,1.206009184,1,9,1,3
1,2,410,f42887_e_108,1,0.74596488,1,9,2,3
1,2,411,f42887_e_192,1,1.3161315,1,9,1,3
1,2,412,f42887_e_068,1,0.897281101,1,9,1,3
1,2,413,f42887_e_093,1,1.235368526,1,10,2,4
1,2,414,f42887_e_139,1,0.755525094,0,10,2,3
1,2,415,f42887_e_263,1,1.305865436,1,9,1,3
1,2,416,f42887_e_066,1,0.985003921,1,9,1,3
1,2,417,f42887_e_078,1,1.194742827,1,9,2,3
1,2,418,f42887_e_075,1,1.295133966,1,9,2,3
1,2,419,f42887_e_221,1,1.375388391,1,9,2,3
1,2,420,f42887_e_013,1,1.335333349,1,10,2,4
1,2,421,f42887_e_198,1,1.395118793,1,10,1,4
1,2,422,f42887_e_145,1,0.945177962,1,9,2,3
1,2,423,f42887_e_009,1,1.604911045,1,9,2,3
1,2,424,f42887_e_137,1,1.655254259,1,9,2,3
1,2,425,f42887_e_190,1,0.88293462,1,9,2,3
1,2,426,f42887_e_251,1,1.124980808,1,10,1,4
1,2,427,f42887_e_028,1,1.014654846,1,10,2,4
1,2,428,f42887_e_278,1,1.114813158,1,9,2,3
1,2,429,f42887_e_029,1,1.314547364,1,10,2,4
1,2,430,f42887_e_265,1,0.903987263,1,10,1,4
1,2,431,f42887_e_129,1,0.920569308,1,9,2,3
1,2,432,f42887_e_018,1,0.844479019,1,9,1,3
1,2,433,f42887_e_076,1,1.053754305,1,10,1,4
1,2,434,f42887_e_113,1,1.424284617,1,9,1,3
1,2,435,f42887_e_224,1,1.374269755,1,10,1,4
1,2,436,f42887_e_004,1,1.414272459,1,9,1,3
1,2,437,f42887_e_176,1,1.063939609,1,9,1,3
1,2,438,f42887_e_035,1,1.103929034,1,10,2,4
1,2,439,f42887_e_052,1,1.074048549,1,10,1,4
1,2,440,f42887_e_167,1,1.944024256,1,9,1,3
1,2,441,f42887_e_143,1,0.813782263,1,10,1,4
1,2,442,f42887_e_171,1,0.953494421,1,9,2,3
1,2,443,f42887_e_181,1,1.183413004,1,9,1,3
1,2,444,f42887_e_211,1,0.933568026,1,10,1,4
1,2,445,f42887_e_281,1,0.813507451,1,10,1,4
1,2,446,f42887_e_216,1,1.453365639,1,9,1,3
1,2,447,f42887_e_112,1,0.983282402,1,10,2,4
1,2,448,f42887_e_079,1,1.29329847,1,9,1,3
1,2,449,f42887_e_124,1,1.323033192,1,9,1,3
1,2,450,f42887_e_239,1,1.052858598,1,10,1,4
1,2,451,f42887_e_015,1,1.203013797,1,9,1,3
1,2,452,f42887_e_020,1,1.072858816,1,10,1,4
1,2,453,f42887_e_098,1,0.762647692,1,10,1,4
1,2,454,f42887_e_060,1,0.922834214,1,9,2,3
1,2,455,f42887_e_209,1,1.202742575,1,9,2,3
1,2,456,f42887_e_292,1,0.902603177,1,10,1,4
1,2,457,f42887_e_232,1,0.95245012,1,10,2,4
1,2,458,f42887_e_023,1,0.962493549,1,10,1,4
1,2,459,f42887_e_250,1,1.142554158,1,10,2,4
1,2,460,f42887_e_115,1,1.252243301,1,9,1,3
1,2,461,f42887_e_286,1,1.71271756,1,9,2,3
1,2,462,f42887_e_294,1,1.002044079,1,10,2,4
1,2,463,f42887_e_225,1,1.342291992,1,9,2,3
1,2,464,f42887_e_285,1,1.012167752,1,10,1,4
1,2,465,f42887_e_230,1,1.232142797,1,9,1,3
1,2,466,f42887_e_034,1,1.112115113,1,9,1,3
1,2,467,f42887_e_123,1,0.911949342,1,9,2,3
1,2,468,f42887_e_291,1,1.07186697,1,10,2,4
1,2,469,f42887_e_194,1,0.841296647,1,9,2,3
1,2,470,f42887_e_203,1,0.991411008,1,9,2,3
1,2,471,f42887_e_180,1,0.731594673,1,9,1,3
1,2,472,f42887_e_219,1,0.886298477,1,10,1,4
1,2,473,f42887_e_067,1,0.901433139,1,9,2,3
1,2,474,f42887_e_132,1,1.401462771,1,10,1,4
1,2,475,f42887_e_229,1,1.10092006,1,10,1,4
1,2,476,f42887_e_161,1,1.161601868,1,10,1,4
1,2,477,f42887_e_050,1,0.950730327,1,9,2,3
1,2,478,f42887_e_166,1,1.001194651,1,10,1,4
1,2,479,f42887_e_269,1,1.201290361,1,10,1,4
1,2,480,f42887_e_220,1,1.20124118,1,9,2,3
1,2,481,f42887_e_133,1,1.401147782,1,10,2,4
1,2,482,f42887_e_289,1,1.020960346,1,10,1,4
1,2,483,f42887_e_065,1,0.830953406,1,10,2,4
1,2,484,f42887_e_118,1,0.860456331,1,9,2,3
1,2,485,f42887_e_017,1,1.100864598,1,9,1,3
1,2,486,f42887_e_072,1,0.830518147,1,9,1,3
1,2,487,f42887_e_149,1,0.890723071,1,10,1,4
1,2,488,f42887_e_086,1,1.230816695,1,9,1,3
1,2,489,f42887_e_187,1,1.16044094,1,9,2,3
1,2,490,f42887_e_288,1,1.440403038,1,9,2,3
1,2,491,f42887_e_276,1,0.970344925,1,10,1,4
1,2,492,f42887_e_105,1,1.340182079,1,9,2,3
1,2,493,f42887_e_275,1,0.880105098,1,9,1,3
1,2,494,f42887_e_215,1,0.964459925,1,9,2,3
1,2,495,f42887_e_000,1,0.939916925,1,9,1,3
1,2,496,f42887_e_163,1,1.111659635,1,10,1,4
1,2,497,f42887_e_047,1,1.329766774,1,9,2,3
1,2,498,f42887_e_030,1,1.019435301,1,9,2,3
1,2,499,f42887_e_204,1,1.269423898,1,10,1,4
1,2,500,f42887_e_012,1,1.009142019,1,9,2,3
1,2,501,f42887_e_055,1,1.270218128,1,10,1,4
1,2,502,f42887_e_088,1,1.079279042,1,9,1,3
1,2,503,f42887_e_159,1,0.869315808,1,9,1,3
1,2,504,f42887_e_172,1,0.949121429,1,10,1,4
1,2,505,f42887_e_092,1,0.899063068,1,9,2,3
1,2,506,f42887_e_152,1,1.099163609,1,10,2,4
1,2,507,f42887_e_128,1,1.268880075,1,9,1,3
1,2,508,f42887_e_022,1,1.118399737,1,9,1,3
1,2,509,f42887_e_206,1,1.249163692,1,9,1,3
1,2,510,f42887_e_298,1,1.418893703,1,10,2,4
1,2,511,f42887_e_056,1,1.198596496,1,9,2,3
1,2,512,f42887_e_135,1,1.278676045,1,10,2,4
1,2,513,f42887_e_195,1,1.898643726,1,10,1,4
1,2,514,f42887_e_191,1,0.998581951,1,10,1,4
1,2,515,f42887_e_155,1,1.628588729,1,9,1,3
1,2,516,f42887_e_044,1,1.008259842,1,9,2,3
1,2,517,f42887_e_268,1,2.228612414,1,9,1,3
1,2,518,f42887_e_283,1,1.097250071,1,10,1,4
1,2,519,f42887_e_036,1,0.877586109,1,10,1,4
1,2,520,f42887_e_058,1,0.688096319,1,10,1,4
1,2,521,f42887_e_014,1,0.807684466,1,10,2,4
1,2,522,f42887_e_266,1,1.357815466,1,9,1,3
1,2,523,f42887_e_183,1,0.947659906,1,10,1,4
1,2,524,f42887_e_121,1,1.378217748,1,9,1,3
1,2,525,f42887_e_150,1,1.127858519,1,9,1,3
1,2,526,f42887_e_104,1,1.157639835,1,10,2,4
1,2,527,f42887_e_290,1,1.307659319,1,10,1,4
1,2,528,f42887_e_042,1,1.237529004,1,10,1,4
1,2,529,f42887_e_200,1,0.907472929,1,10,1,4
1,2,530,f42887_e_039,1,0.971715199,1,10,2,4
1,2,531,f42887_e_033,1,0.895976673,1,10,1,4
1,2,532,f42887_e_189,1,1.91771141,1,9,2,3
1,2,533,f42887_e_084,1,0.797387703,1,10,1,4
1,2,534,f42887_e_287,1,0.877318805,1,9,2,3
1,2,535,f42887_e_045,1,1.137334692,1,9,1,3
1,2,536,f42887_e_156,1,1.017205075,1,9,1,3
1,2,537,f42887_e_277,1,0.638805451,1,9,1,3
1,2,538,f42887_e_284,1,1.367070962,1,10,2,4
1,2,539,f42887_e_213,1,1.157766707,1,10,2,4
1,2,540,f42887_e_218,1,2.577199842,1,9,1,3
1,2,541,f42887_e_244,1,0.836595515,1,10,1,4
1,2,542,f42887_e_296,1,0.987691387,1,10,1,4
1,2,543,f42887_e_259,1,0.926520053,1,10,2,4
1,2,544,f42887_e_175,1,1.05669659,1,9,1,3
1,2,545,f42887_e_227,1,1.08672377,1,10,2,4
1,2,546,f42887_e_002,1,0.966116526,1,9,2,3
1,2,547,f42887_e_031,1,1.175709218,1,9,2,3
1,2,548,f42887_e_212,1,0.996370733,1,10,1,4
1,2,549,f42887_e_249,1,0.966132,1,9,1,3
1,2,550,f42887_e_182,1,1.066067342,1,10,2,4
1,2,551,f42887_e_062,1,0.975758304,1,10,1,4
1,2,552,f42887_e_025,1,1.055254744,1,10,1,4
1,2,553,f42887_e_073,1,1.08608641,1,9,1,3
1,2,554,f42887_e_005,1,1.945943049,1,9,1,3
1,2,555,f42887_e_238,1,1.265797184,1,9,1,3
1,2,556,f42887_e_063,1,0.93554882,1,10,1,4
1,2,557,f42887_e_110,1,0.985529349,1,10,2,4
1,2,558,f42887_e_059,1,0.765345673,1,10,1,4
1,2,559,f42887_e_101,1,0.945397477,1,10,1,4
1,2,560,f42887_e_228,1,0.945460098,1,10,1,4
1,2,561,f42887_e_074,1,1.205419861,1,10,1,4
1,2,562,f42887_e_214,1,0.827786726,1,10,1,4
1,2,563,f42887_e_048,1,1.145291169,1,9,2,3
1,2,564,f42887_e_186,1,1.054895759,1,10,1,4
1,2,565,f42887_e_222,1,1.325108098,1,9,2,3
1,2,566,f42887_e_260,1,1.064680098,1,10,2,4
1,2,567,f42887_e_236,1,1.194971042,1,10,2,4
1,2,568,f42887_e_299,1,1.844934786,1,9,1,3
1,2,569,f42887_e_271,1,0.984431962,1,9,1,3
1,2,570,f42887_e_264,1,0.894335023,1,9,1,3
1,2,571,f42887_e_262,1,1.084818109,1,10,1,4
1,2,572,f42887_e_274,1,1.15421288,1,9,2,3
1,2,573,f42887_e_069,1,1.064557361,1,10,2,4
1,2,574,f42887_e_243,1,1.794397263,1,9,1,3
1,2,575,f42887_e_173,1,0.783945207,1,10,1,4
1,2,576,f42887_e_057,1,0.974087579,1,9,2,3
1,2,577,f42887_e_008,1,0.843874398,1,10,2,4
1,2,578,f42887_e_169,1,1.164123992,1,10,2,4
1,2,579,f42887_e_235,1,1.023768647,1,9,2,3
1,2,580,f42887_e_258,1,0.803483492,1,10,1,4
1,2,581,f42887_e_138,1,0.943622718,1,10,2,4
1,2,582,f42887_e_193,1,0.943967872,1,9,1,3
1,2,583,f42887_e_160,1,0.793666169,1,9,1,3
1,2,584,f42887_e_083,1,0.903552372,1,10,1,4
1,2,585,f42887_e_295,1,0.833187278,1,10,1,4
1,2,586,f42887_e_041,1,0.93316815,1,10,1,4
1,2,587,f42887_e_242,1,0.883539319,1,9,1,3
1,2,588,f42887_e_254,1,0.953268767,1,10,1,4
1,2,589,f42887_e_111,1,1.563442507,1,9,2,3
1,2,590,f42887_e_142,1,0.913456087,1,9,2,3
1,2,591,f42887_e_037,1,1.442883526,1,9,1,3
1,2,592,f42887_e_100,1,1.663118932,1,9,2,3
1,2,593,f42887_e_177,1,1.212973861,1,9,1,3
1,2,594,f42887_e_273,1,1.013184696,1,10,2,4
1,2,595,f42887_e_082,1,1.083067286,1,10,1,4
1,2,596,f42887_e_257,1,1.062953011,1,10,2,4
1,2,597,f42887_e_282,1,0.882570357,1,9,1,3
1,2,598,f42887_e_119,1,0.871908477,1,9,1,3
1,2,599,f42887_e_091,1,1.042719147,1,10,1,4
1,2,600,f42887_e_231,1,1.432632004,1,9,2,3
10,1,1,f42887_e_056,1,1.235890631,1,10,2,4
10,1,2,f42887_e_075,1,1.848150551,1,9,2,3
10,1,3,f42887_e_068,1,1.888061905,1,9,2,3
10,1,4,f42887_e_201,1,1.265195429,0,9,1,4
10,1,5,f42887_e_249,1,1.786607992,1,10,2,4
10,1,6,f42887_e_170,1,1.945441821,1,9,2,3
10,1,7,f42887_e_035,1,4.328074421,1,9,2,3
10,1,8,f42887_e_091,1,2.803519218,1,10,1,4
10,1,9,f42887_e_172,1,1.805337621,1,10,2,4
10,1,10,f42887_e_270,1,2.117525867,1,9,1,3
10,1,11,f42887_e_202,1,2.09634141,1,9,2,3
10,1,12,f42887_e_180,1,1.276159595,1,9,2,3
10,1,13,f42887_e_259,1,3.1971867,1,9,1,3
10,1,14,f42887_e_131,1,1.872788097,1,10,1,4
10,1,15,f42887_e_073,1,1.4623469,1,9,2,3
10,1,16,f42887_e_031,1,2.01429732,1,9,1,3
10,1,17,f42887_e_060,1,3.502250297,1,10,2,4
10,1,18,f42887_e_234,1,1.623477081,1,9,1,3
10,1,19,f42887_e_229,1,1.532527985,1,9,1,3
10,1,20,f42887_e_162,1,1.158266804,1,10,1,4
10,1,21,f42887_e_037,1,1.903791454,1,9,2,3
10,1,22,f42887_e_248,1,1.272789555,1,10,2,4
10,1,23,f42887_e_101,1,1.323471899,1,9,2,3
10,1,24,f42887_e_039,1,1.790823631,1,9,2,3
10,1,25,f42887_e_120,1,1.123319573,1,9,2,3
10,1,26,f42887_e_063,1,1.557788518,1,10,1,4
10,1,27,f42887_e_230,1,1.13927418,1,9,2,3
10,1,28,f42887_e_217,1,1.923265205,1,10,1,4
10,1,29,f42887_e_265,1,1.340383522,1,10,2,4
10,1,30,f42887_e_134,1,1.373057897,1,9,1,3
10,1,31,f42887_e_015,1,1.523714066,1,9,1,3
10,1,32,f42887_e_130,1,2.0034393,1,10,2,4
10,1,33,f42887_e_261,1,2.73650028,1,9,1,3
10,1,34,f42887_e_087,1,1.205836106,1,10,1,4
10,1,35,f42887_e_094,1,2.957225493,1,10,1,4
10,1,36,f42887_e_205,1,1.623879353,1,9,2,3
10,1,37,f42887_e_099,1,1.735415197,1,10,2,4
10,1,38,f42887_e_189,1,1.265177629,1,9,2,3
10,1,39,f42887_e_033,1,1.702029278,1,10,1,4
10,1,40,f42887_e_007,1,2.070765427,1,10,2,4
10,1,41,f42887_e_014,1,1.202637689,1,10,2,4
10,1,42,f42887_e_150,1,1.604901977,1,10,1,4
10,1,43,f42887_e_288,1,1.435059307,1,9,2,3
10,1,44,f42887_e_165,1,1.803317496,1,9,1,3
10,1,45,f42887_e_247,1,2.531636654,1,10,2,4
10,1,46,f42887_e_253,1,3.769009357,1,10,1,4
10,1,47,f42887_e_078,1,1.404440266,1,9,2,3
10,1,48,f42887_e_054,1,1.833069133,1,9,2,3
10,1,49,f42887_e_163,1,2.402118423,1,10,2,4
10,1,50,f42887_e_190,1,1.637146799,1,9,2,3
10,1,51,f42887_e_050,1,2.035483375,1,9,2,3
10,1,52,f42887_e_133,1,2.804043169,1,10,1,4
10,1,53,f42887_e_071,1,1.568784037,1,9,1,3
10,1,54,f42887_e_088,1,1.868350726,1,9,1,3
10,1,55,f42887_e_064,1,10.03056051,-1,9,1,0
10,1,56,f42887_e_074,1,8.69370366,0,10,1,3
10,1,57,f42887_e_239,1,1.467870305,1,9,1,3
10,1,58,f42887_e_281,1,1.568356739,1,10,1,4
10,1,59,f42887_e_157,1,1.60380017,1,9,1,3
10,1,60,f42887_e_272,1,1.502565861,1,9,1,3
10,1,61,f42887_e_241,1,1.76803981,1,10,1,4
10,1,62,f42887_e_296,1,2.3335004,1,10,2,4
10,1,63,f42887_e_169,1,1.533146274,1,9,2,3
10,1,64,f42887_e_168,1,2.067756554,1,10,1,4
10,1,65,f42887_e_138,1,2.733506558,1,10,2,4
10,1,66,f42887_e_061,1,2.569561502,1,9,1,3
10,1,67,f42887_e_290,1,1.326881375,1,9,1,3
10,1,68,f42887_e_026,1,1.49825914,1,9,1,3
10,1,69,f42887_e_158,1,2.067474669,1,10,2,4
10,1,70,f42887_e_097,1,2.406299397,1,10,2,4
10,1,71,f42887_e_067,1,2.633697329,1,10,1,4
10,1,72,f42887_e_085,1,2.624729182,1,9,1,3
10,1,73,f42887_e_016,1,2.096463928,1,10,2,4
10,1,74,f42887_e_115,1,1.629704093,1,9,1,3
10,1,75,f42887_e_110,1,1.727159967,1,9,1,3
10,1,76,f42887_e_111,1,1.460609338,1,10,1,4
10,1,77,f42887_e_159,1,2.231014227,1,9,1,3
10,1,78,f42887_e_266,1,1.425681528,1,9,2,3
10,1,79,f42887_e_276,1,2.526673475,1,9,2,3
10,1,80,f42887_e_192,1,1.691313923,1,10,2,4
10,1,81,f42887_e_199,1,1.457662735,1,10,2,4
10,1,82,f42887_e_213,1,2.272496438,1,10,2,4
10,1,83,f42887_e_297,1,1.45937438,1,9,2,3
10,1,84,f42887_e_043,1,1.525323502,1,9,2,3
10,1,85,f42887_e_122,1,1.962619175,1,10,1,4
10,1,86,f42887_e_119,1,2.771601371,1,10,2,4
10,1,87,f42887_e_049,1,1.992668697,1,9,1,3
10,1,88,f42887_e_113,1,1.890165085,1,9,1,3
10,1,89,f42887_e_257,1,2.671001652,0,10,2,3
10,1,90,f42887_e_000,1,1.373549443,1,9,1,3
10,1,91,f42887_e_081,1,1.296471889,1,9,2,3
10,1,92,f42887_e_161,1,1.497192783,1,10,2,4
10,1,93,f42887_e_141,1,3.190822095,1,9,1,3
10,1,94,f42887_e_224,1,1.525133038,1,10,1,4
10,1,95,f42887_e_176,1,1.427916223,1,10,2,4
10,1,96,f42887_e_102,1,1.605283362,1,10,2,4
10,1,97,f42887_e_262,1,1.974156469,1,10,2,4
10,1,98,f42887_e_233,1,2.456961387,1,9,1,3
10,1,99,f42887_e_151,1,2.406292318,1,9,2,3
10,1,100,f42887_e_089,1,2.459290157,1,10,2,4
10,1,101,f42887_e_223,1,1.96401256,1,10,1,4
10,1,102,f42887_e_284,1,1.994039669,1,9,1,3
10,1,103,f42887_e_226,1,1.937328402,1,10,2,4
10,1,104,f42887_e_136,1,2.027425993,1,10,1,4
10,1,105,f42887_e_092,1,1.5401877,1,10,2,4
10,1,106,f42887_e_171,1,1.439357483,1,9,1,3
10,1,107,f42887_e_048,1,1.523034053,1,9,2,3
10,1,108,f42887_e_263,1,1.89143067,1,9,2,3
10,1,109,f42887_e_045,1,2.091228311,1,9,2,3
10,1,110,f42887_e_059,1,1.891634992,1,10,1,4
10,1,111,f42887_e_154,1,1.424337891,1,10,2,4
10,1,112,f42887_e_195,1,1.973914798,1,9,2,3
10,1,113,f42887_e_178,1,2.259803439,1,10,1,4
10,1,114,f42887_e_209,1,1.905398352,1,9,2,3
10,1,115,f42887_e_046,1,1.491432234,1,9,2,3
10,1,116,f42887_e_137,1,2.05879343,1,9,1,3
10,1,117,f42887_e_013,1,3.26958861,1,10,1,4
10,1,118,f42887_e_206,1,1.923828186,1,10,2,4
10,1,119,f42887_e_103,1,2.225500966,1,9,2,3
10,1,120,f42887_e_036,1,2.739798016,1,10,2,4
10,1,121,f42887_e_204,1,1.423360898,1,10,2,4
10,1,122,f42887_e_181,1,3.104303635,1,9,1,3
10,1,123,f42887_e_029,1,1.502704074,1,9,2,3
10,1,124,f42887_e_005,1,1.624526153,1,10,1,4
10,1,125,f42887_e_243,1,1.95778209,1,10,1,4
10,1,126,f42887_e_292,1,1.772338666,1,10,2,4
10,1,127,f42887_e_042,1,2.172576484,1,9,1,3
10,1,128,f42887_e_142,1,2.172403263,1,9,2,3
10,1,129,f42887_e_030,1,1.535948923,1,9,2,3
10,1,130,f42887_e_028,1,2.025410801,1,9,1,3
10,1,131,f42887_e_175,1,1.968694632,1,10,2,4
10,1,132,f42887_e_160,1,2.072564147,1,10,2,4
10,1,133,f42887_e_032,1,1.439159593,1,9,2,3
10,1,134,f42887_e_238,1,1.772395222,1,9,1,3
10,1,135,f42887_e_098,1,1.536722537,1,10,2,4
10,1,136,f42887_e_264,1,1.303107154,1,9,2,3
10,1,137,f42887_e_066,1,1.302271577,1,9,2,3
10,1,138,f42887_e_222,1,1.570678399,1,10,2,4
10,1,139,f42887_e_118,1,1.238371632,1,9,2,3
10,1,140,f42887_e_282,1,1.738146719,1,9,1,3
10,1,141,f42887_e_117,1,1.10601455,1,9,2,3
10,1,142,f42887_e_070,1,1.239010087,1,9,2,3
10,1,143,f42887_e_027,1,1.139163835,1,9,2,3
10,1,144,f42887_e_025,1,1.935332672,1,10,1,4
10,1,145,f42887_e_010,1,2.989499634,1,9,1,3
10,1,146,f42887_e_299,1,1.406290937,1,9,1,3
10,1,147,f42887_e_246,1,1.124438211,1,9,2,3
10,1,148,f42887_e_183,1,1.40441612,1,10,2,4
10,1,149,f42887_e_240,1,1.371615953,1,10,1,4
10,1,150,f42887_e_228,1,0.933822005,1,9,1,3
10,1,151,f42887_e_096,1,1.758144159,1,9,1,3
10,1,152,f42887_e_008,1,2.094085621,1,10,1,4
10,1,153,f42887_e_256,1,2.803876528,1,10,2,4
10,1,154,f42887_e_164,1,2.437393013,1,10,1,4
10,1,155,f42887_e_242,1,1.723504963,1,9,1,3
10,1,156,f42887_e_291,1,1.839277852,1,9,2,3
10,1,157,f42887_e_076,1,1.805865982,1,10,1,4
10,1,158,f42887_e_072,1,2.032719888,1,10,2,4
10,1,159,f42887_e_114,1,1.570172911,1,9,2,3
10,1,160,f42887_e_058,1,1.325238326,1,10,1,4
10,1,161,f42887_e_145,1,1.339448679,1,10,1,4
10,1,162,f42887_e_047,1,1.769700282,1,9,1,3
10,1,163,f42887_e_022,1,1.738390567,1,10,1,4
10,1,164,f42887_e_271,1,1.468029849,0,9,1,4
10,1,165,f42887_e_034,1,2.402069818,1,10,2,4
10,1,166,f42887_e_100,1,1.800619832,1,9,2,3
10,1,167,f42887_e_057,1,1.399264796,1,10,2,4
10,1,168,f42887_e_252,1,0.959372281,1,9,2,3
10,1,169,f42887_e_112,1,1.239339396,1,9,2,3
10,1,170,f42887_e_186,1,1.270046687,1,10,1,4
10,1,171,f42887_e_144,1,1.466276342,1,9,1,3
10,1,172,f42887_e_258,1,2.037109281,1,10,2,4
10,1,173,f42887_e_289,1,1.335544425,1,9,1,3
10,1,174,f42887_e_198,1,1.536653575,1,9,1,3
10,1,175,f42887_e_244,1,1.138629313,1,9,2,3
10,1,176,f42887_e_191,1,2.139252057,1,9,2,3
10,1,177,f42887_e_021,1,2.401999616,1,10,1,4
10,1,178,f42887_e_285,1,1.336146526,1,9,2,3
10,1,179,f42887_e_139,1,1.405071845,1,9,2,3
10,1,180,f42887_e_052,1,1.233919191,1,9,1,3
10,1,181,f42887_e_012,1,1.256881879,1,9,1,3
10,1,182,f42887_e_177,1,1.633192711,1,10,1,4
10,1,183,f42887_e_065,1,1.070958451,1,9,2,3
10,1,184,f42887_e_156,1,1.099766411,1,9,2,3
10,1,185,f42887_e_129,1,1.039039285,1,9,2,3
10,1,186,f42887_e_286,1,1.268131975,1,10,2,4
10,1,187,f42887_e_127,1,1.835217253,1,10,1,4
10,1,188,f42887_e_250,1,1.236747182,1,9,2,3
10,1,189,f42887_e_062,1,2.069234303,1,10,1,4
10,1,190,f42887_e_194,1,1.499328418,1,9,1,3
10,1,191,f42887_e_149,1,1.635331455,1,10,2,4
10,1,192,f42887_e_211,1,1.672321006,1,10,2,4
10,1,193,f42887_e_269,1,1.29732447,1,10,2,4
10,1,194,f42887_e_040,1,2.030061422,1,10,2,4
10,1,195,f42887_e_116,1,1.637147769,1,9,2,3
10,1,196,f42887_e_018,1,1.565670258,1,9,2,3
10,1,197,f42887_e_274,1,1.566028809,1,9,1,3
10,1,198,f42887_e_084,1,1.2963961,1,10,2,4
10,1,199,f42887_e_019,1,3.161872836,1,10,1,4
10,1,200,f42887_e_017,1,1.83050864,1,10,2,4
10,1,201,f42887_e_173,1,1.829126466,1,10,2,4
10,1,202,f42887_e_128,1,1.958272338,1,10,1,4
10,1,203,f42887_e_038,1,2.296852944,1,10,1,4
10,1,204,f42887_e_232,1,2.57277719,1,10,2,4
10,1,205,f42887_e_298,1,1.4956885,1,10,1,4
10,1,206,f42887_e_001,1,1.638668702,1,10,2,4
10,1,207,f42887_e_179,1,2.703564415,1,10,2,4
10,1,208,f42887_e_216,1,3.567073213,1,9,1,3
10,1,209,f42887_e_273,1,1.729317538,1,9,1,3
10,1,210,f42887_e_280,1,1.631859721,1,10,2,4
10,1,211,f42887_e_004,1,1.639034936,1,10,1,4
10,1,212,f42887_e_208,1,1.430392197,1,9,1,3
10,1,213,f42887_e_108,1,1.06018754,1,9,2,3
10,1,214,f42887_e_215,1,1.439437568,1,10,2,4
10,1,215,f42887_e_109,1,1.19405672,1,9,1,3
10,1,216,f42887_e_124,1,1.229914674,1,9,2,3
10,1,217,f42887_e_221,1,1.324248585,1,10,2,4
10,1,218,f42887_e_121,1,1.404527006,1,10,2,4
10,1,219,f42887_e_140,1,1.125940276,1,9,2,3
10,1,220,f42887_e_069,1,1.538371868,0,10,2,3
10,1,221,f42887_e_002,1,1.094988622,1,9,2,3
10,1,222,f42887_e_123,1,1.358563614,1,9,2,3
10,1,223,f42887_e_083,1,1.459450718,1,9,1,3
10,1,224,f42887_e_251,1,1.293494749,1,10,2,4
10,1,225,f42887_e_203,1,1.762412038,1,10,2,4
10,1,226,f42887_e_077,1,1.62706977,1,9,2,3
10,1,227,f42887_e_106,1,1.706407555,1,9,1,3
10,1,228,f42887_e_187,1,1.473653117,1,9,1,3
10,1,229,f42887_e_260,1,2.105231045,1,10,1,4
10,1,230,f42887_e_200,1,1.292189096,1,9,1,3
10,1,231,f42887_e_188,1,1.99197165,1,10,2,4
10,1,232,f42887_e_207,1,1.629258642,1,10,2,4
10,1,233,f42887_e_095,1,1.426946406,1,9,2,3
10,1,234,f42887_e_184,1,1.839997602,1,10,2,4
10,1,235,f42887_e_080,1,1.37217134,1,9,1,3
10,1,236,f42887_e_235,1,1.657835738,1,10,1,4
10,1,237,f42887_e_125,1,1.75917411,1,10,2,4
10,1,238,f42887_e_293,1,1.293153789,1,9,2,3
10,1,239,f42887_e_023,1,1.527942378,1,9,2,3
10,1,240,f42887_e_044,1,2.503026283,1,10,1,4
10,1,241,f42887_e_277,1,1.704080703,1,10,2,4
10,1,242,f42887_e_278,1,1.357711541,1,10,2,4
10,1,243,f42887_e_155,1,1.261402952,1,9,2,3
10,1,244,f42887_e_104,1,1.370660403,1,9,2,3
10,1,245,f42887_e_003,1,1.257469586,1,9,1,3
10,1,246,f42887_e_174,1,1.171921379,1,9,2,3
10,1,247,f42887_e_053,1,1.83947426,1,10,1,4
10,1,248,f42887_e_254,1,2.927549518,1,10,1,4
10,1,249,f42887_e_153,1,2.123949163,1,9,2,3
10,1,250,f42887_e_225,1,2.062217143,1,9,2,3
10,1,251,f42887_e_143,1,2.026376027,1,10,1,4
10,1,252,f42887_e_219,1,2.02436832,1,10,2,4
10,1,253,f42887_e_193,1,1.369625238,1,10,2,4
10,1,254,f42887_e_185,1,2.205729751,1,10,1,4
10,1,255,f42887_e_147,1,1.506580772,1,9,1,3
10,1,256,f42887_e_079,1,2.135371931,1,9,1,3
10,1,257,f42887_e_212,1,1.994823088,1,10,2,4
10,1,258,f42887_e_196,1,1.807203285,1,10,1,4
10,1,259,f42887_e_167,1,2.058771701,1,10,2,4
10,1,260,f42887_e_152,1,2.072059478,1,10,1,4
10,1,261,f42887_e_024,1,1.37304316,1,10,1,4
10,1,262,f42887_e_086,1,2.036545127,1,9,2,3
10,1,263,f42887_e_218,1,1.635995379,1,9,1,3
10,1,264,f42887_e_182,1,2.971270535,1,10,1,4
10,1,265,f42887_e_041,1,1.603700524,1,9,1,3
10,1,266,f42887_e_006,1,1.46904059,1,10,1,4
10,1,267,f42887_e_267,1,1.070838956,1,9,2,3
10,1,268,f42887_e_082,1,1.292850697,1,9,2,3
10,1,269,f42887_e_227,1,1.938611359,1,9,1,3
10,1,270,f42887_e_294,1,2.193822922,1,10,2,4
10,1,271,f42887_e_020,1,2.034276602,1,10,2,4
10,1,272,f42887_e_105,1,2.406301735,1,10,1,4
10,1,273,f42887_e_107,1,1.256617833,1,10,1,4
10,1,274,f42887_e_214,1,1.173893447,1,10,1,4
10,1,275,f42887_e_132,1,1.759924251,1,10,2,4
10,1,276,f42887_e_245,1,1.56063011,1,10,2,4
10,1,277,f42887_e_220,1,1.540735275,1,9,1,3
10,1,278,f42887_e_135,1,1.506130068,1,9,2,3
10,1,279,f42887_e_275,1,3.755740418,0,9,1,4
10,1,280,f42887_e_093,1,2.200900898,1,9,1,3
10,1,281,f42887_e_236,1,1.624351658,1,10,2,4
10,1,282,f42887_e_197,1,1.668170772,1,10,2,4
10,1,283,f42887_e_295,1,1.600867833,1,10,1,4
10,1,284,f42887_e_268,1,0.369886325,0,10,1,3
10,1,285,f42887_e_255,1,1.266980852,1,9,1,3
10,1,286,f42887_e_287,1,1.805284156,1,10,2,4
10,1,287,f42887_e_009,1,1.434495371,1,10,2,4
10,1,288,f42887_e_146,1,1.791220835,1,10,1,4
10,1,289,f42887_e_283,1,2.10321871,1,10,1,4
10,1,290,f42887_e_279,1,2.738619965,1,10,1,4
10,1,291,f42887_e_231,1,2.005436587,1,9,1,3
10,1,292,f42887_e_148,1,1.691259758,0,10,2,3
10,1,293,f42887_e_090,1,1.800122234,1,10,1,4
10,1,294,f42887_e_237,1,2.004743092,1,10,1,4
10,1,295,f42887_e_051,1,1.558440521,1,9,2,3
10,1,296,f42887_e_055,1,1.337616734,1,9,2,3
10,1,297,f42887_e_126,1,1.306008836,1,9,2,3
10,1,298,f42887_e_011,1,1.500273554,1,9,2,3
10,1,299,f42887_e_210,1,1.638968534,1,10,1,4
10,1,300,f42887_e_166,1,1.499890154,1,9,1,3
10,2,301,f42887_e_019,1,1.931952955,1,10,1,4
10,2,302,f42887_e_119,1,1.491003808,1,9,1,3
10,2,303,f42887_e_238,1,1.690774528,1,10,2,4
10,2,304,f42887_e_227,1,1.757377999,1,9,1,3
10,2,305,f42887_e_074,1,1.506222647,1,9,2,3
10,2,306,f42887_e_022,1,1.291180254,1,9,1,3
10,2,307,f42887_e_060,1,1.257596066,1,10,2,4
10,2,308,f42887_e_277,1,1.4242522,1,9,2,3
10,2,309,f42887_e_097,1,1.457640378,1,9,2,3
10,2,310,f42887_e_247,1,1.624003322,1,9,1,3
10,2,311,f42887_e_289,1,1.523543105,1,10,1,4
10,2,312,f42887_e_165,1,1.373934289,1,9,1,3
10,2,313,f42887_e_125,1,1.440492497,1,9,2,3
10,2,314,f42887_e_204,1,1.240710664,1,9,1,3
10,2,315,f42887_e_182,1,2.439854363,1,10,1,4
10,2,316,f42887_e_275,1,1.673629666,1,10,2,4
10,2,317,f42887_e_287,1,0.992319387,1,10,2,4
10,2,318,f42887_e_164,1,1.739891101,1,10,1,4
10,2,319,f42887_e_031,1,1.330510059,1,10,2,4
10,2,320,f42887_e_050,1,1.073533256,1,9,1,3
10,2,321,f42887_e_109,1,1.190105437,1,10,1,4
10,2,322,f42887_e_113,1,1.306786515,1,10,1,4
10,2,323,f42887_e_284,1,1.539201144,1,9,2,3
10,2,324,f42887_e_140,1,1.456417876,1,10,2,4
10,2,325,f42887_e_038,1,1.173168994,1,10,1,4
10,2,326,f42887_e_110,1,1.17320817,1,10,2,4
10,2,327,f42887_e_123,1,1.139738237,1,10,2,4
10,2,328,f42887_e_214,1,1.772322707,1,10,1,4
10,2,329,f42887_e_259,1,1.539278718,1,10,2,4
10,2,330,f42887_e_061,1,1.406017011,1,9,1,3
10,2,331,f42887_e_142,1,1.172558416,1,9,2,3
10,2,332,f42887_e_015,1,2.038735773,1,10,2,4
10,2,333,f42887_e_245,1,1.305712191,1,9,1,3
10,2,334,f42887_e_071,1,1.505532554,1,9,1,3
10,2,335,f42887_e_162,1,1.505594373,1,10,2,4
10,2,336,f42887_e_131,1,1.571816985,1,10,2,4
10,2,337,f42887_e_152,1,1.472120229,1,10,1,4
10,2,338,f42887_e_272,1,1.438190175,1,10,2,4
10,2,339,f42887_e_084,1,1.638439858,1,10,1,4
10,2,340,f42887_e_013,1,1.571568055,1,9,1,3
10,2,341,f42887_e_199,1,2.005002327,1,10,1,4
10,2,342,f42887_e_221,1,1.704496719,1,10,1,4
10,2,343,f42887_e_083,1,1.204933195,1,9,2,3
10,2,344,f42887_e_269,1,1.338281391,1,9,2,3
10,2,345,f42887_e_243,1,1.871409972,1,9,2,3
10,2,346,f42887_e_295,1,1.264277789,1,10,2,4
10,2,347,f42887_e_288,1,1.50426451,1,10,2,4
10,2,348,f42887_e_168,1,1.204730366,1,9,2,3
10,2,349,f42887_e_191,1,2.270878453,1,10,2,4
10,2,350,f42887_e_006,1,1.430725857,1,9,2,3
10,2,351,f42887_e_293,1,2.030885698,1,10,1,4
10,2,352,f42887_e_212,1,1.930332147,1,9,1,3
10,2,353,f42887_e_046,1,1.897209817,1,10,2,4
10,2,354,f42887_e_206,1,1.197621465,1,9,2,3
10,2,355,f42887_e_156,1,1.130746324,1,10,2,4
10,2,356,f42887_e_282,1,1.297461002,0,10,2,3
10,2,357,f42887_e_154,1,1.563785125,0,9,1,4
10,2,358,f42887_e_197,1,1.464037129,1,10,2,4
10,2,359,f42887_e_241,1,1.896885981,1,10,1,4
10,2,360,f42887_e_195,1,1.197163848,1,10,2,4
10,2,361,f42887_e_069,1,1.163914256,1,9,2,3
10,2,362,f42887_e_175,1,1.36352692,1,9,2,3
10,2,363,f42887_e_163,1,1.595424275,1,9,1,3
10,2,364,f42887_e_262,1,1.630070572,1,10,1,4
10,2,365,f42887_e_051,1,1.763091525,1,10,2,4
10,2,366,f42887_e_011,1,1.263358077,1,9,2,3
10,2,367,f42887_e_042,1,1.563383602,1,9,2,3
10,2,368,f42887_e_279,1,1.063476926,1,10,2,4
10,2,369,f42887_e_233,1,1.395965335,1,9,1,3
10,2,370,f42887_e_114,1,1.496433807,1,10,1,4
10,2,371,f42887_e_116,1,1.229846641,1,10,2,4
10,2,372,f42887_e_094,1,1.829469129,1,9,2,3
10,2,373,f42887_e_049,1,1.329549701,1,9,1,3
10,2,374,f42887_e_223,1,2.062145354,1,9,1,3
10,2,375,f42887_e_198,1,1.396007334,1,10,1,4
10,2,376,f42887_e_089,1,1.229422497,1,9,2,3
10,2,377,f42887_e_213,1,1.695490626,1,9,2,3
10,2,378,f42887_e_079,1,1.328834654,1,10,2,4
10,2,379,f42887_e_188,1,1.728984476,1,10,2,4
10,2,380,f42887_e_228,1,1.297799045,1,10,1,4
10,2,381,f42887_e_186,1,1.362341437,1,9,1,3
10,2,382,f42887_e_218,1,1.362237377,1,10,2,4
10,2,383,f42887_e_261,1,1.662245236,1,10,1,4
10,2,384,f42887_e_098,1,2.128534976,1,10,2,4
10,2,385,f42887_e_035,1,1.261952749,1,9,1,3
10,2,386,f42887_e_172,1,1.428876911,1,9,2,3
10,2,387,f42887_e_044,1,1.361904406,1,9,1,3
10,2,388,f42887_e_023,1,1.82844932,1,10,2,4
10,2,389,f42887_e_224,1,2.061107324,1,10,1,4
10,2,390,f42887_e_193,1,1.295126027,0,9,1,4
10,2,391,f42887_e_181,1,2.161110728,1,10,2,4
10,2,392,f42887_e_171,1,1.161731542,1,9,1,3
10,2,393,f42887_e_137,1,1.394766433,1,10,2,4
10,2,394,f42887_e_129,1,1.394698415,1,9,1,3
10,2,395,f42887_e_253,1,1.327996648,1,10,1,4
10,2,396,f42887_e_149,1,1.627685758,1,10,2,4
10,2,397,f42887_e_215,1,1.727775981,1,10,2,4
10,2,398,f42887_e_077,1,1.357329028,1,9,1,3
10,2,399,f42887_e_048,1,1.627580109,1,9,2,3
10,2,400,f42887_e_075,1,1.46071566,1,10,1,4
10,2,401,f42887_e_090,1,1.698387503,1,10,1,4
10,2,402,f42887_e_132,1,1.560484476,1,10,1,4
10,2,403,f42887_e_297,1,1.39425108,1,10,2,4
10,2,404,f42887_e_135,1,1.893659955,1,10,2,4
10,2,405,f42887_e_273,1,1.893576196,1,9,1,3
10,2,406,f42887_e_072,1,1.193836564,1,9,2,3
10,2,407,f42887_e_029,1,1.427183694,1,10,1,4
10,2,408,f42887_e_260,1,1.127225417,1,10,2,4
10,2,409,f42887_e_222,1,1.359908747,1,10,2,4
10,2,410,f42887_e_012,1,1.260300821,1,9,2,3
10,2,411,f42887_e_078,1,1.593229772,1,9,1,3
10,2,412,f42887_e_009,1,0.993260519,1,9,2,3
10,2,413,f42887_e_014,1,1.191521179,1,9,2,3
10,2,414,f42887_e_244,1,0.926501922,1,9,2,3
10,2,415,f42887_e_081,1,1.126120324,1,9,2,3
10,2,416,f42887_e_063,1,1.192583539,1,10,2,4
10,2,417,f42887_e_112,1,1.626403756,1,10,1,4
10,2,418,f42887_e_178,1,1.492518906,1,9,1,3
10,2,419,f42887_e_151,1,1.759617772,1,10,2,4
10,2,420,f42887_e_266,1,1.326454396,1,9,1,3
10,2,421,f42887_e_111,1,1.505017621,1,9,2,3
10,2,422,f42887_e_105,1,1.558724816,1,10,1,4
10,2,423,f42887_e_007,1,1.426061886,1,10,2,4
10,2,424,f42887_e_252,1,1.125832671,1,9,2,3
10,2,425,f42887_e_080,1,1.440343118,1,10,1,4
10,2,426,f42887_e_249,1,1.159364217,1,10,2,4
10,2,427,f42887_e_065,1,1.29158142,1,9,2,3
10,2,428,f42887_e_203,1,1.505377777,1,9,1,3
10,2,429,f42887_e_278,1,1.272811367,1,9,2,3
10,2,430,f42887_e_207,1,1.392138689,1,9,2,3
10,2,431,f42887_e_000,1,1.258733874,1,9,2,3
10,2,432,f42887_e_122,1,1.391875191,1,10,1,4
10,2,433,f42887_e_286,1,1.625343158,1,9,1,3
10,2,434,f42887_e_240,1,1.391717658,1,10,2,4
10,2,435,f42887_e_118,1,1.591507874,1,10,1,4
10,2,436,f42887_e_145,1,1.191685365,1,10,1,4
10,2,437,f42887_e_136,1,1.629162567,1,10,2,4
10,2,438,f42887_e_032,1,1.524393178,1,9,1,3
10,2,439,f42887_e_043,1,1.191771365,1,9,2,3
10,2,440,f42887_e_159,1,1.324631695,1,9,1,3
10,2,441,f42887_e_096,1,1.790896563,1,10,1,4
10,2,442,f42887_e_004,1,1.72439625,1,10,2,4
10,2,443,f42887_e_220,1,1.892140827,1,10,2,4
10,2,444,f42887_e_210,1,1.724315164,1,10,1,4
10,2,445,f42887_e_052,1,1.324360866,1,9,1,3
10,2,446,f42887_e_166,1,1.391227173,1,10,2,4
10,2,447,f42887_e_010,1,1.457579525,1,10,1,4
10,2,448,f42887_e_085,1,1.457704276,0,10,1,3
10,2,449,f42887_e_037,1,1.190870491,1,9,2,3
10,2,450,f42887_e_196,1,1.324255175,1,9,2,3
10,2,451,f42887_e_291,1,1.424109945,1,9,1,3
10,2,452,f42887_e_033,1,1.457249009,1,9,2,3
10,2,453,f42887_e_211,1,1.673982288,1,10,1,4
10,2,454,f42887_e_267,1,1.406346914,1,9,2,3
10,2,455,f42887_e_005,1,1.307358612,1,9,1,3
10,2,456,f42887_e_133,1,1.52904363,1,10,1,4
10,2,457,f42887_e_102,1,1.289967515,1,9,1,3
10,2,458,f42887_e_189,1,1.790073404,1,10,2,4
10,2,459,f42887_e_229,1,1.406859576,1,9,1,3
10,2,460,f42887_e_242,1,1.490191416,1,9,1,3
10,2,461,f42887_e_157,1,1.439652059,1,10,1,4
10,2,462,f42887_e_056,1,1.35654788,1,9,1,3
10,2,463,f42887_e_107,1,1.356435501,1,9,2,3
10,2,464,f42887_e_138,1,1.356643552,1,10,2,4
10,2,465,f42887_e_246,1,1.339227579,1,10,2,4
10,2,466,f42887_e_095,1,1.706005904,1,10,1,4
10,2,467,f42887_e_039,1,1.672817597,1,10,1,4
10,2,468,f42887_e_001,1,1.506060644,1,9,2,3
10,2,469,f42887_e_128,1,1.805739867,1,9,1,3
10,2,470,f42887_e_236,1,1.539411277,1,10,2,4
10,2,471,f42887_e_161,1,1.172797011,1,10,1,4
10,2,472,f42887_e_160,1,1.5257628,1,10,1,4
10,2,473,f42887_e_134,1,1.338733169,1,10,1,4
10,2,474,f42887_e_167,1,1.638622823,1,9,1,3
10,2,475,f42887_e_264,1,1.205632348,1,9,2,3
10,2,476,f42887_e_170,1,1.239136631,1,9,1,3
10,2,477,f42887_e_036,1,1.405548311,1,9,1,3
10,2,478,f42887_e_174,1,1.360593235,1,10,1,4
10,2,479,f42887_e_106,1,0.905624963,1,9,1,3
10,2,480,f42887_e_027,1,1.257301688,1,9,1,3
10,2,481,f42887_e_205,1,1.771898842,1,10,1,4
10,2,482,f42887_e_290,1,1.005609442,1,9,2,3
10,2,483,f42887_e_219,1,1.072132138,1,9,1,3
10,2,484,f42887_e_187,1,1.372001096,1,9,2,3
10,2,485,f42887_e_067,1,1.305135568,1,9,1,3
10,2,486,f42887_e_101,1,1.171707858,1,9,2,3
10,2,487,f42887_e_184,1,1.37148248,1,9,2,3
10,2,488,f42887_e_062,1,2.037907971,1,10,1,4
10,2,489,f42887_e_274,1,1.404895038,1,10,2,4
10,2,490,f42887_e_179,1,1.164202787,1,9,1,3
10,2,491,f42887_e_239,1,1.729839726,1,10,2,4
10,2,492,f42887_e_226,1,1.471227281,1,10,2,4
10,2,493,f42887_e_093,1,1.856414094,1,10,1,4
10,2,494,f42887_e_148,1,1.364479673,1,9,1,3
10,2,495,f42887_e_025,1,1.597093308,1,10,2,4
10,2,496,f42887_e_040,1,1.630284616,1,10,1,4
10,2,497,f42887_e_017,1,1.43019821,1,10,2,4
10,2,498,f42887_e_192,1,1.097519697,1,9,2,3
10,2,499,f42887_e_091,1,1.396955621,1,10,1,4
10,2,500,f42887_e_209,1,1.463581595,1,10,2,4
10,2,501,f42887_e_256,1,1.365288656,1,10,1,4
10,2,502,f42887_e_258,1,1.463588317,1,10,2,4
10,2,503,f42887_e_041,1,1.896245196,1,9,2,3
10,2,504,f42887_e_176,1,1.063618102,1,9,2,3
10,2,505,f42887_e_200,1,2.029772202,1,9,2,3
10,2,506,f42887_e_250,1,1.263220135,1,10,2,4
10,2,507,f42887_e_268,1,1.030157951,1,9,2,3
10,2,508,f42887_e_296,1,1.863209136,1,9,1,3
10,2,509,f42887_e_283,1,1.196217573,1,10,2,4
10,2,510,f42887_e_087,1,1.629577489,1,10,1,4
10,2,511,f42887_e_024,1,1.529513923,1,10,2,4
10,2,512,f42887_e_124,1,1.329498153,1,10,1,4
10,2,513,f42887_e_117,1,1.362997981,1,10,2,4
10,2,514,f42887_e_082,1,1.096219526,1,9,2,3
10,2,515,f42887_e_153,1,1.796143872,1,9,1,3
10,2,516,f42887_e_021,1,1.16230426,1,9,2,3
10,2,517,f42887_e_271,1,1.362728606,1,9,1,3
10,2,518,f42887_e_068,1,1.262633786,1,9,2,3
10,2,519,f42887_e_127,1,1.2293672,1,10,2,4
10,2,520,f42887_e_281,1,1.17354286,1,10,2,4
10,2,521,f42887_e_003,1,1.162732264,1,10,2,4
10,2,522,f42887_e_270,1,1.395678818,1,10,1,4
10,2,523,f42887_e_030,1,1.295443107,1,9,1,3
10,2,524,f42887_e_185,1,1.030266138,1,9,1,3
10,2,525,f42887_e_141,1,0.862476884,1,9,2,3
10,2,526,f42887_e_045,1,0.828928707,1,9,2,3
10,2,527,f42887_e_190,1,1.362176738,1,10,2,4
10,2,528,f42887_e_053,1,1.428752664,1,10,2,4
10,2,529,f42887_e_026,1,1.328134696,1,9,1,3
10,2,530,f42887_e_276,1,1.06165277,1,10,2,4
10,2,531,f42887_e_018,1,1.261522993,1,10,1,4
10,2,532,f42887_e_092,1,1.061632086,1,9,2,3
10,2,533,f42887_e_066,1,0.99474052,1,9,2,3
10,2,534,f42887_e_251,1,1.461698371,1,10,2,4
10,2,535,f42887_e_076,1,1.028356159,1,9,2,3
10,2,536,f42887_e_248,1,1.294996569,1,10,2,4
10,2,537,f42887_e_299,1,1.061561974,1,9,2,3
10,2,538,f42887_e_008,1,1.761310373,1,10,1,4
10,2,539,f42887_e_143,1,1.427894343,1,10,1,4
10,2,540,f42887_e_202,1,1.427857084,1,10,1,4
10,2,541,f42887_e_232,1,1.261051158,1,9,2,3
10,2,542,f42887_e_108,1,1.061198469,1,9,2,3
10,2,543,f42887_e_183,1,1.461070541,1,10,2,4
10,2,544,f42887_e_173,1,1.460517305,1,9,1,3
10,2,545,f42887_e_208,1,1.305935773,1,9,1,3
10,2,546,f42887_e_147,1,1.227603198,1,9,1,3
10,2,547,f42887_e_057,1,1.494137884,1,10,1,4
10,2,548,f42887_e_294,1,1.727008385,1,10,1,4
10,2,549,f42887_e_059,1,1.327170673,1,10,2,4
10,2,550,f42887_e_086,1,1.027310523,1,9,2,3
10,2,551,f42887_e_292,1,1.458467932,1,9,2,3
10,2,552,f42887_e_280,1,1.56041777,1,10,1,4
10,2,553,f42887_e_144,1,1.127189447,1,10,1,4
10,2,554,f42887_e_088,1,1.026867387,1,10,1,4
10,2,555,f42887_e_265,1,1.326713229,1,10,2,4
10,2,556,f42887_e_230,1,1.226409861,1,9,1,3
10,2,557,f42887_e_103,1,1.259634337,1,9,1,3
10,2,558,f42887_e_100,1,1.026200013,1,9,2,3
10,2,559,f42887_e_139,1,1.459760069,1,10,2,4
10,2,560,f42887_e_028,1,1.193140554,1,9,2,3
10,2,561,f42887_e_257,1,1.492280976,1,10,2,4
10,2,562,f42887_e_020,1,1.525903416,1,9,1,3
10,2,563,f42887_e_126,1,1.392869744,1,10,1,4
10,2,564,f42887_e_070,1,1.226247565,1,9,1,3
10,2,565,f42887_e_225,1,1.059633243,1,9,2,3
10,2,566,f42887_e_002,1,0.826443887,1,9,2,3
10,2,567,f42887_e_150,1,1.359530513,1,9,1,3
10,2,568,f42887_e_255,1,1.425771896,1,9,2,3
10,2,569,f42887_e_216,1,1.15938401,1,9,1,3
10,2,570,f42887_e_180,1,1.126041354,1,9,2,3
10,2,571,f42887_e_073,1,1.358861051,1,9,2,3
10,2,572,f42887_e_054,1,1.592351564,1,10,2,4
10,2,573,f42887_e_237,1,1.6255243,1,9,2,3
10,2,574,f42887_e_155,1,1.537650267,1,10,1,4
10,2,575,f42887_e_263,1,1.824894338,1,10,1,4
10,2,576,f42887_e_064,1,1.657804584,1,9,1,3
10,2,577,f42887_e_120,1,2.091751465,1,10,1,4
10,2,578,f42887_e_235,1,1.391798214,1,9,1,3
10,2,579,f42887_e_099,1,2.224637795,1,10,1,4
10,2,580,f42887_e_055,1,1.491491482,1,10,1,4
10,2,581,f42887_e_177,1,2.257496188,1,9,1,3
10,2,582,f42887_e_146,1,3.456925509,0,10,2,3
10,2,583,f42887_e_158,1,1.991321038,1,10,1,4
10,2,584,f42887_e_194,1,1.957748395,1,10,2,4
10,2,585,f42887_e_254,1,1.391248312,1,9,2,3
10,2,586,f42887_e_285,1,1.391215997,1,9,2,3
10,2,587,f42887_e_016,1,1.224467593,1,9,2,3
10,2,588,f42887_e_058,1,1.557602576,1,10,1,4
10,2,589,f42887_e_047,1,1.690912896,1,10,2,4
10,2,590,f42887_e_231,1,1.757613271,1,10,2,4
10,2,591,f42887_e_121,1,1.024541148,1,10,2,4
10,2,592,f42887_e_034,1,1.040389681,1,9,2,3
10,2,593,f42887_e_104,1,1.274257796,1,10,2,4
10,2,594,f42887_e_201,1,1.290473357,1,10,2,4
10,2,595,f42887_e_298,1,1.396665239,1,9,1,3
10,2,596,f42887_e_130,1,0.941063491,1,10,2,4
10,2,597,f42887_e_217,1,1.290732551,1,9,2,3
10,2,598,f42887_e_169,1,1.257238035,1,9,2,3
10,2,599,f42887_e_115,1,1.806938674,1,10,2,4
10,2,600,f42887_e_234,1,1.439399994,0,9,1,4
11,1,1,f42887_e_156,1,1.098037363,1,10,1,4
11,1,2,f42887_e_276,1,0.993680907,1,10,2,4
11,1,3,f42887_e_231,1,1.671836303,1,9,2,3
11,1,4,f42887_e_265,1,3.425780991,1,9,2,3
11,1,5,f42887_e_094,1,1.526596922,1,10,2,4
11,1,6,f42887_e_269,1,1.593028416,1,10,1,4
11,1,7,f42887_e_014,1,1.49312238,1,10,2,4
11,1,8,f42887_e_141,1,2.025679953,1,9,2,3
11,1,9,f42887_e_077,1,2.092211082,0,9,2,4
11,1,10,f42887_e_004,1,1.093211649,1,10,1,4
11,1,11,f42887_e_244,1,1.059621525,1,10,2,4
11,1,12,f42887_e_040,1,1.892508452,1,9,2,3
11,1,13,f42887_e_221,1,1.592649295,1,9,2,3
11,1,14,f42887_e_232,1,1.859101533,1,10,1,4
11,1,15,f42887_e_095,1,1.556813642,1,9,1,3
11,1,16,f42887_e_225,1,1.359004347,1,9,1,3
11,1,17,f42887_e_249,1,2.695703667,1,9,1,3
11,1,18,f42887_e_119,1,1.358946246,1,10,2,4
11,1,19,f42887_e_213,1,2.025111758,1,10,2,4
11,1,20,f42887_e_170,1,1.425487687,1,9,2,3
11,1,21,f42887_e_044,1,2.29146402,1,9,1,3
11,1,22,f42887_e_169,1,4.790323622,1,10,2,4
11,1,23,f42887_e_252,1,2.891163282,1,10,2,4
11,1,24,f42887_e_176,1,1.325227634,1,9,2,3
11,1,25,f42887_e_011,1,1.358312837,1,9,1,3
11,1,26,f42887_e_223,1,1.191854289,1,9,1,3
11,1,27,f42887_e_060,1,1.758200786,1,9,2,3
11,1,28,f42887_e_118,1,1.691550023,1,9,2,3
11,1,29,f42887_e_136,1,2.190657385,1,9,2,3
11,1,30,f42887_e_062,1,3.256724458,1,10,1,4
11,1,31,f42887_e_093,1,2.15756299,1,10,2,4
11,1,32,f42887_e_248,1,1.891075447,1,9,1,3
11,1,33,f42887_e_125,1,1.640319164,1,9,2,3
11,1,34,f42887_e_122,1,1.757541696,1,9,2,3
11,1,35,f42887_e_253,1,1.340387285,1,10,2,4
11,1,36,f42887_e_117,1,1.623417273,1,10,2,4
11,1,37,f42887_e_289,1,1.556455039,1,9,1,3
11,1,38,f42887_e_131,1,1.456504721,1,9,1,3
11,1,39,f42887_e_072,1,1.773175727,1,10,2,4
11,1,40,f42887_e_063,1,2.072695887,1,9,1,3
11,1,41,f42887_e_052,1,1.656336579,1,10,1,4
11,1,42,f42887_e_010,1,3.405534614,1,10,1,4
11,1,43,f42887_e_261,1,1.206315561,1,9,1,3
11,1,44,f42887_e_008,1,1.506252211,1,10,1,4
11,1,45,f42887_e_196,1,2.705397894,1,9,2,3
11,1,46,f42887_e_140,1,4.104870662,1,10,1,4
11,1,47,f42887_e_227,1,2.305791459,1,9,2,3
11,1,48,f42887_e_070,1,4.038036017,1,9,2,3
11,1,49,f42887_e_085,1,1.438774761,1,9,1,3
11,1,50,f42887_e_073,1,1.572160043,0,10,2,3
11,1,51,f42887_e_022,1,1.274043715,1,10,1,4
11,1,52,f42887_e_007,1,1.47218098,1,10,1,4
11,1,53,f42887_e_153,1,1.305570324,1,10,2,4
11,1,54,f42887_e_045,1,1.70543048,1,9,1,3
11,1,55,f42887_e_205,1,1.938625757,1,9,2,3
11,1,56,f42887_e_079,1,1.728643708,1,10,2,4
11,1,57,f42887_e_137,1,1.405323361,1,10,1,4
11,1,58,f42887_e_174,1,1.405318929,1,10,2,4
11,1,59,f42887_e_074,1,3.170999865,1,9,2,3
11,1,60,f42887_e_083,1,1.538367319,1,10,1,4
11,1,61,f42887_e_088,1,1.87145728,1,9,1,3
11,1,62,f42887_e_216,1,1.838025135,1,9,2,3
11,1,63,f42887_e_026,1,2.171354512,1,9,2,3
11,1,64,f42887_e_101,1,1.971368369,1,9,2,3
11,1,65,f42887_e_278,1,1.571362015,1,9,1,3
11,1,66,f42887_e_258,1,1.671230623,1,10,1,4
11,1,67,f42887_e_075,1,1.504540933,1,9,1,3
11,1,68,f42887_e_066,1,1.971001581,1,9,2,3
11,1,69,f42887_e_266,1,1.471226123,1,9,1,3
11,1,70,f42887_e_202,1,1.804354185,1,9,2,3
11,1,71,f42887_e_215,1,2.063601231,1,9,2,3
11,1,72,f42887_e_243,1,1.530662799,1,10,1,4
11,1,73,f42887_e_021,1,1.43063971,1,9,2,3
11,1,74,f42887_e_134,1,1.563785189,1,9,2,3
11,1,75,f42887_e_001,1,1.56378693,1,10,1,4
11,1,76,f42887_e_201,1,1.297078253,1,10,1,4
11,1,77,f42887_e_184,1,1.430364694,1,9,1,3
11,1,78,f42887_e_284,1,1.497018961,1,10,2,4
11,1,79,f42887_e_193,1,1.230533448,1,10,2,4
11,1,80,f42887_e_179,1,1.196820513,1,10,1,4
11,1,81,f42887_e_109,1,1.463471144,1,10,2,4
11,1,82,f42887_e_127,1,1.863323657,1,10,1,4
11,1,83,f42887_e_189,1,1.8043795,1,9,2,3
11,1,84,f42887_e_123,1,1.729942522,1,9,2,3
11,1,85,f42887_e_100,1,1.529055555,1,10,2,4
11,1,86,f42887_e_195,1,1.56321557,1,10,2,4
11,1,87,f42887_e_024,1,1.229962024,1,10,2,4
11,1,88,f42887_e_271,1,1.529330278,1,10,2,4
11,1,89,f42887_e_239,1,3.89526228,1,10,1,4
11,1,90,f42887_e_098,1,1.695894702,1,10,1,4
11,1,91,f42887_e_042,1,2.128992048,0,10,1,3
11,1,92,f42887_e_245,1,1.629423061,1,9,2,3
11,1,93,f42887_e_154,1,1.862502656,1,9,1,3
11,1,94,f42887_e_222,1,4.058979179,1,9,2,3
11,1,95,f42887_e_228,1,4.727214947,1,10,1,4
11,1,96,f42887_e_049,1,2.16231137,1,10,1,4
11,1,97,f42887_e_020,1,1.662354002,1,9,2,3
11,1,98,f42887_e_206,1,4.227531979,1,10,1,4
11,1,99,f42887_e_259,1,6.293318018,1,9,2,3
11,1,100,f42887_e_263,1,1.562165588,1,9,1,3
11,1,101,f42887_e_240,1,3.297569831,1,10,2,4
11,1,102,f42887_e_104,1,1.46160944,1,9,1,3
11,1,103,f42887_e_173,1,1.428095375,1,9,1,3
11,1,104,f42887_e_027,1,0.962371218,1,9,1,3
11,1,105,f42887_e_061,1,1.391443025,1,10,1,4
11,1,106,f42887_e_114,1,2.927430755,1,10,1,4
11,1,107,f42887_e_149,1,2.871193914,1,9,2,3
11,1,108,f42887_e_103,1,1.861483445,1,10,2,4
11,1,109,f42887_e_187,1,3.027685695,1,10,1,4
11,1,110,f42887_e_233,1,2.061104279,1,9,2,3
11,1,111,f42887_e_159,1,2.427636361,1,10,1,4
11,1,112,f42887_e_242,1,1.727440224,1,9,1,3
11,1,113,f42887_e_055,1,2.727162005,1,10,2,4
11,1,114,f42887_e_046,1,4.159674165,1,10,1,4
11,1,115,f42887_e_138,1,3.360163036,1,9,2,3
11,1,116,f42887_e_143,1,1.560364793,1,10,2,4
11,1,117,f42887_e_164,1,2.260385795,1,10,1,4
11,1,118,f42887_e_267,1,1.394248757,1,9,1,3
11,1,119,f42887_e_041,1,1.693939663,1,9,1,3
11,1,120,f42887_e_056,1,1.860434359,1,9,2,3
11,1,121,f42887_e_105,1,1.873103561,1,9,1,3
11,1,122,f42887_e_097,1,2.892521998,1,9,2,3
11,1,123,f42887_e_003,1,1.393823399,1,10,2,4
11,1,124,f42887_e_081,1,1.660230333,1,9,2,3
11,1,125,f42887_e_217,1,1.693597666,1,9,2,3
11,1,126,f42887_e_084,1,2.426483271,1,10,1,4
11,1,127,f42887_e_281,1,1.526848307,1,9,1,3
11,1,128,f42887_e_298,1,1.493056726,1,10,2,4
11,1,129,f42887_e_087,1,1.593261219,1,9,1,3
11,1,130,f42887_e_224,1,1.426710953,1,10,1,4
11,1,131,f42887_e_032,1,1.326561493,1,9,1,3
11,1,132,f42887_e_234,1,1.85956044,1,9,2,3
11,1,133,f42887_e_124,1,1.659513038,1,9,1,3
11,1,134,f42887_e_251,1,1.692859201,1,10,2,4
11,1,135,f42887_e_126,1,1.659483384,1,9,2,3
11,1,136,f42887_e_058,1,1.25925881,1,9,2,3
11,1,137,f42887_e_017,1,2.625706307,1,10,1,4
11,1,138,f42887_e_128,1,1.759348653,1,10,2,4
11,1,139,f42887_e_120,1,1.226149374,1,10,1,4
11,1,140,f42887_e_268,1,1.925613843,1,9,1,3
11,1,141,f42887_e_297,1,3.824725624,1,10,1,4
11,1,142,f42887_e_192,1,1.725553504,1,9,1,3
11,1,143,f42887_e_089,1,1.725159729,1,9,1,3
11,1,144,f42887_e_246,1,1.724774349,1,9,2,3
11,1,145,f42887_e_106,1,1.325668252,1,10,1,4
11,1,146,f42887_e_000,1,2.337460713,1,9,2,3
11,1,147,f42887_e_230,1,1.758411314,1,9,1,3
11,1,148,f42887_e_282,1,1.2585558,1,9,1,3
11,1,149,f42887_e_160,1,1.625048175,1,10,1,4
11,1,150,f42887_e_002,1,1.558345334,1,9,1,3
11,1,151,f42887_e_291,1,1.391916315,1,10,2,4
11,1,152,f42887_e_064,1,1.858222141,1,9,2,3
11,1,153,f42887_e_144,1,1.458187265,1,10,1,4
11,1,154,f42887_e_194,1,1.857570781,1,10,1,4
11,1,155,f42887_e_065,1,2.457636341,1,9,2,3
11,1,156,f42887_e_290,1,1.358172692,1,9,2,3
11,1,157,f42887_e_250,1,1.291577714,1,9,2,3
11,1,158,f42887_e_162,1,1.191455762,1,9,1,3
11,1,159,f42887_e_292,1,1.890853483,1,9,2,3
11,1,160,f42887_e_135,1,1.357770277,1,10,2,4
11,1,161,f42887_e_207,1,1.724412438,1,10,1,4
11,1,162,f42887_e_121,1,1.507403289,1,10,2,4
11,1,163,f42887_e_043,1,1.924099177,1,10,1,4
11,1,164,f42887_e_151,1,1.690506801,1,10,1,4
11,1,165,f42887_e_165,1,1.957186587,1,9,1,3
11,1,166,f42887_e_152,1,1.290391602,1,10,1,4
11,1,167,f42887_e_054,1,1.690131161,1,9,2,3
11,1,168,f42887_e_111,1,1.290364865,1,10,1,4
11,1,169,f42887_e_279,1,3.089638255,1,9,2,3
11,1,170,f42887_e_188,1,1.390465457,1,10,1,4
11,1,171,f42887_e_028,1,1.440514493,1,9,1,3
11,1,172,f42887_e_018,1,1.073678011,1,9,1,3
11,1,173,f42887_e_191,1,1.139433393,1,10,1,4
11,1,174,f42887_e_212,1,1.406617484,1,9,1,3
11,1,175,f42887_e_277,1,2.22290427,1,9,2,3
11,1,176,f42887_e_110,1,1.456607363,1,10,1,4
11,1,177,f42887_e_285,1,1.139906574,1,10,2,4
11,1,178,f42887_e_256,1,1.123343881,1,10,1,4
11,1,179,f42887_e_200,1,1.039921929,1,10,2,4
11,1,180,f42887_e_047,1,3.938397508,1,10,2,4
11,1,181,f42887_e_241,1,2.996210676,1,10,1,4
11,1,182,f42887_e_030,1,2.572446575,1,9,2,3
11,1,183,f42887_e_038,1,1.805857711,1,9,2,3
11,1,184,f42887_e_257,1,1.705634674,1,9,1,3
11,1,185,f42887_e_116,1,1.40572446,1,10,2,4
11,1,186,f42887_e_037,1,1.106084662,1,10,2,4
11,1,187,f42887_e_132,1,1.772503308,1,9,2,3
11,1,188,f42887_e_071,1,1.305297412,1,9,1,3
11,1,189,f42887_e_036,1,1.138748116,0,10,1,3
11,1,190,f42887_e_168,1,2.938108265,1,10,2,4
11,1,191,f42887_e_015,1,2.371719201,1,10,2,4
11,1,192,f42887_e_057,1,1.705371984,1,9,1,3
11,1,193,f42887_e_166,1,1.257678084,1,10,2,4
11,1,194,f42887_e_218,1,1.863705801,0,10,1,3
11,1,195,f42887_e_247,1,0.37228133,0,9,1,4
11,1,196,f42887_e_171,1,1.604573066,0,9,2,4
11,1,197,f42887_e_198,1,0.805136069,1,9,2,3
11,1,198,f42887_e_035,1,1.305058647,1,9,1,3
11,1,199,f42887_e_112,1,1.138455972,1,9,1,3
11,1,200,f42887_e_295,1,1.138253413,1,9,1,3
11,1,201,f42887_e_113,1,2.897725254,1,10,2,4
11,1,202,f42887_e_023,1,1.604303414,1,9,1,3
11,1,203,f42887_e_181,1,2.197125647,1,10,1,4
11,1,204,f42887_e_229,1,1.427082604,1,9,1,3
11,1,205,f42887_e_115,1,2.270731394,1,9,2,3
11,1,206,f42887_e_220,1,3.136936635,1,9,1,3
11,1,207,f42887_e_190,1,1.504410235,1,10,2,4
11,1,208,f42887_e_033,1,1.737237925,1,10,1,4
11,1,209,f42887_e_182,1,1.264040238,1,9,1,3
11,1,210,f42887_e_034,1,1.564167296,1,10,1,4
11,1,211,f42887_e_235,1,4.862510241,1,9,2,3
11,1,212,f42887_e_092,1,1.762470691,1,10,1,4
11,1,213,f42887_e_108,1,1.260910756,1,10,1,4
11,1,214,f42887_e_012,1,1.430599493,1,9,1,3
11,1,215,f42887_e_031,1,1.996764657,1,9,2,3
11,1,216,f42887_e_286,1,1.597019376,1,10,1,4
11,1,217,f42887_e_214,1,1.296959258,1,10,1,4
11,1,218,f42887_e_264,1,1.230381795,1,10,2,4
11,1,219,f42887_e_161,1,1.563575033,1,10,2,4
11,1,220,f42887_e_287,1,2.029894559,1,10,1,4
11,1,221,f42887_e_005,1,1.330085333,1,9,1,3
11,1,222,f42887_e_288,1,1.56294497,1,10,2,4
11,1,223,f42887_e_142,1,2.229131271,1,10,2,4
11,1,224,f42887_e_146,1,1.562090656,1,10,2,4
11,1,225,f42887_e_080,1,1.362715682,1,10,2,4
11,1,226,f42887_e_086,1,0.962983796,1,10,2,4
11,1,227,f42887_e_208,1,1.362726433,1,9,1,3
11,1,228,f42887_e_299,1,3.160539105,1,10,1,4
11,1,229,f42887_e_237,1,1.629306634,0,10,2,3
11,1,230,f42887_e_294,1,2.356610663,1,10,1,4
11,1,231,f42887_e_155,1,3.794777706,1,9,1,3
11,1,232,f42887_e_296,1,1.562530623,1,10,1,4
11,1,233,f42887_e_019,1,2.262056738,1,9,1,3
11,1,234,f42887_e_226,1,3.061608114,1,10,2,4
11,1,235,f42887_e_059,1,1.828854006,1,10,2,4
11,1,236,f42887_e_203,1,1.928757426,1,9,2,3
11,1,237,f42887_e_025,1,1.762019488,1,10,1,4
11,1,238,f42887_e_163,1,1.462035237,1,9,1,3
11,1,239,f42887_e_051,1,1.195683378,1,9,1,3
11,1,240,f42887_e_158,1,1.728526844,1,9,2,3
11,1,241,f42887_e_102,1,1.362083637,1,10,2,4
11,1,242,f42887_e_199,1,1.691234991,1,10,2,4
11,1,243,f42887_e_099,1,1.961782185,1,9,2,3
11,1,244,f42887_e_210,1,1.128666907,1,9,2,3
11,1,245,f42887_e_050,1,1.827590503,0,9,1,4
11,1,246,f42887_e_157,1,1.760957157,1,9,2,3
11,1,247,f42887_e_219,1,1.728143791,1,9,1,3
11,1,248,f42887_e_107,1,1.628129274,1,10,1,4
11,1,249,f42887_e_067,1,1.594866042,1,9,1,3
11,1,250,f42887_e_236,1,1.194548623,1,9,1,3
11,1,251,f42887_e_133,1,2.027619838,1,10,2,4
11,1,252,f42887_e_175,1,2.959175073,1,10,1,4
11,1,253,f42887_e_273,1,2.360751855,1,10,2,4
11,1,254,f42887_e_180,1,2.460341003,1,10,2,4
11,1,255,f42887_e_280,1,2.660357961,1,10,1,4
11,1,256,f42887_e_013,1,1.361066017,1,9,2,3
11,1,257,f42887_e_016,1,0.960941578,1,9,1,3
11,1,258,f42887_e_260,1,1.927045686,1,9,1,3
11,1,259,f42887_e_204,1,1.960400973,1,9,2,3
11,1,260,f42887_e_167,1,2.259566662,1,9,2,3
11,1,261,f42887_e_185,1,4.162754684,1,9,2,3
11,1,262,f42887_e_076,1,2.793018883,1,9,1,3
11,1,263,f42887_e_238,1,2.159965706,1,9,2,3
11,1,264,f42887_e_283,1,2.893070065,1,10,2,4
11,1,265,f42887_e_069,1,1.559667155,1,9,1,3
11,1,266,f42887_e_262,1,1.193285647,1,9,1,3
11,1,267,f42887_e_183,1,1.593434796,1,9,1,3
11,1,268,f42887_e_272,1,1.826421166,1,10,2,4
11,1,269,f42887_e_270,1,2.558964244,1,9,2,3
11,1,270,f42887_e_293,1,1.959564589,1,10,1,4
11,1,271,f42887_e_177,1,1.726469201,1,9,2,3
11,1,272,f42887_e_006,1,1.693027504,1,9,1,3
11,1,273,f42887_e_209,1,3.092186459,1,10,1,4
11,1,274,f42887_e_082,1,1.49289911,1,9,1,3
11,1,275,f42887_e_139,1,1.859343231,1,10,1,4
11,1,276,f42887_e_197,1,1.326408566,1,9,1,3
11,1,277,f42887_e_255,1,1.092790566,1,9,2,3
11,1,278,f42887_e_148,1,1.159510253,1,10,2,4
11,1,279,f42887_e_091,1,1.759145396,1,10,1,4
11,1,280,f42887_e_274,1,1.459266032,1,10,1,4
11,1,281,f42887_e_150,1,2.325258691,1,9,2,3
11,1,282,f42887_e_254,1,1.55892869,1,10,1,4
11,1,283,f42887_e_090,1,4.990623068,1,9,2,3
11,1,284,f42887_e_096,1,3.291274462,1,9,2,3
11,1,285,f42887_e_053,1,1.55883512,1,10,1,4
11,1,286,f42887_e_009,1,1.391584103,1,9,1,3
11,1,287,f42887_e_029,1,1.525000482,1,10,1,4
11,1,288,f42887_e_130,1,1.92449281,1,9,1,3
11,1,289,f42887_e_186,1,1.591796827,1,9,1,3
11,1,290,f42887_e_039,1,1.591314658,1,9,1,3
11,1,291,f42887_e_211,1,1.758266846,1,10,1,4
11,1,292,f42887_e_145,1,2.691075839,1,10,1,4
11,1,293,f42887_e_068,1,1.291618127,1,9,1,3
11,1,294,f42887_e_129,1,1.824798907,1,10,1,4
11,1,295,f42887_e_178,1,1.524816329,1,9,2,3
11,1,296,f42887_e_275,1,1.391393518,1,9,1,3
11,1,297,f42887_e_078,1,1.291427087,1,9,1,3
11,1,298,f42887_e_048,1,2.190799609,1,10,2,4
11,1,299,f42887_e_147,1,3.05692723,1,10,1,4
11,1,300,f42887_e_172,1,1.591059806,1,9,1,3
11,2,301,f42887_e_054,1,1.498372947,1,10,2,4
11,2,302,f42887_e_006,1,1.356884761,1,9,2,3
11,2,303,f42887_e_248,1,1.79129447,1,10,2,4
11,2,304,f42887_e_070,1,1.207688574,1,9,1,3
11,2,305,f42887_e_041,1,2.556843699,1,10,1,4
11,2,306,f42887_e_039,1,1.557158778,1,10,1,4
11,2,307,f42887_e_078,1,1.423936074,1,9,1,3
11,2,308,f42887_e_068,1,1.590404454,1,9,2,3
11,2,309,f42887_e_085,1,1.707152129,1,9,1,3
11,2,310,f42887_e_128,1,2.306815775,1,9,2,3
11,2,311,f42887_e_283,1,4.56143501,1,9,2,3
11,2,312,f42887_e_082,1,1.840134684,1,9,2,3
11,2,313,f42887_e_096,1,2.293977457,1,9,2,3
11,2,314,f42887_e_268,1,3.572386205,1,10,2,4
11,2,315,f42887_e_201,1,1.773070706,1,10,1,4
11,2,316,f42887_e_202,1,1.439434617,1,9,2,3
11,2,317,f42887_e_097,1,0.906941919,1,9,1,3
11,2,318,f42887_e_095,1,2.106165027,1,10,1,4
11,2,319,f42887_e_173,1,1.939628859,1,9,1,3
11,2,320,f42887_e_166,1,1.439228762,1,9,2,3
11,2,321,f42887_e_003,1,3.105170133,0,9,1,4
11,2,322,f42887_e_080,1,1.572416158,1,9,2,3
11,2,323,f42887_e_210,1,4.036873773,1,9,1,3
11,2,324,f42887_e_239,1,1.405684724,1,9,2,3
11,2,325,f42887_e_196,1,1.605741867,1,10,1,4
11,2,326,f42887_e_029,1,0.939286199,1,10,1,4
11,2,327,f42887_e_149,1,1.439294596,1,10,2,4
11,2,328,f42887_e_171,1,1.505889495,1,9,2,3
11,2,329,f42887_e_104,1,1.572038502,1,9,1,3
11,2,330,f42887_e_214,1,1.270558898,1,10,2,4
11,2,331,f42887_e_267,1,1.572122671,1,9,1,3
11,2,332,f42887_e_135,1,1.305555482,1,10,2,4
11,2,333,f42887_e_023,1,2.304787744,1,10,1,4
11,2,334,f42887_e_204,1,1.371661888,1,10,1,4
11,2,335,f42887_e_012,1,1.704780323,1,9,2,3
11,2,336,f42887_e_098,1,0.97174244,1,9,1,3
11,2,337,f42887_e_065,1,2.271271811,1,9,1,3
11,2,338,f42887_e_025,1,1.438145059,1,10,2,4
11,2,339,f42887_e_225,1,3.170679047,1,10,1,4
11,2,340,f42887_e_044,1,2.80377993,1,10,2,4
11,2,341,f42887_e_212,1,2.404180021,1,10,1,4
11,2,342,f42887_e_094,1,3.07057176,1,10,1,4
11,2,343,f42887_e_021,1,1.496699207,1,9,2,3
11,2,344,f42887_e_216,1,1.304549313,1,10,1,4
11,2,345,f42887_e_016,1,1.904007441,1,9,2,3
11,2,346,f42887_e_034,1,1.071045097,1,9,2,3
11,2,347,f42887_e_105,1,3.729585737,1,10,1,4
11,2,348,f42887_e_185,1,1.604313151,1,9,1,3
11,2,349,f42887_e_013,1,1.364077864,1,10,2,4
11,2,350,f42887_e_100,1,1.837598394,1,10,2,4
11,2,351,f42887_e_256,1,1.464028114,1,9,1,3
11,2,352,f42887_e_030,1,1.397169815,1,10,1,4
11,2,353,f42887_e_236,1,1.897181562,1,9,1,3
11,2,354,f42887_e_247,1,1.607358543,1,10,1,4
11,2,355,f42887_e_187,1,1.330475341,1,10,2,4
11,2,356,f42887_e_175,1,1.296739835,1,10,2,4
11,2,357,f42887_e_101,1,1.196786539,1,10,2,4
11,2,358,f42887_e_089,1,1.563505105,1,10,1,4
11,2,359,f42887_e_291,1,1.063314792,1,10,2,4
11,2,360,f42887_e_242,1,1.2303596,1,10,2,4
11,2,361,f42887_e_107,1,1.929467108,1,9,2,3
11,2,362,f42887_e_162,1,1.129958939,1,9,1,3
11,2,363,f42887_e_213,1,2.529172096,1,10,1,4
11,2,364,f42887_e_074,1,5.461136394,1,10,1,4
11,2,365,f42887_e_280,1,1.562576901,1,9,2,3
11,2,366,f42887_e_026,1,1.395505672,1,10,1,4
11,2,367,f42887_e_059,1,1.029442737,1,10,2,4
11,2,368,f42887_e_125,1,1.462998648,1,9,1,3
11,2,369,f42887_e_259,1,2.029074873,1,9,1,3
11,2,370,f42887_e_181,1,3.761756484,1,9,2,3
11,2,371,f42887_e_174,1,1.42936069,1,9,2,3
11,2,372,f42887_e_263,1,2.129002522,1,10,1,4
11,2,373,f42887_e_050,1,3.794374179,0,10,1,3
11,2,374,f42887_e_154,1,1.528603742,1,10,2,4
11,2,375,f42887_e_220,1,2.761537398,1,9,2,3
11,2,376,f42887_e_081,1,8.625558035,1,9,2,3
11,2,377,f42887_e_222,1,4.02737306,1,9,2,3
11,2,378,f42887_e_243,1,1.362050228,1,10,2,4
11,2,379,f42887_e_234,1,1.561718866,1,10,1,4
11,2,380,f42887_e_027,1,1.328931916,1,10,1,4
11,2,381,f42887_e_151,1,1.194959469,1,9,2,3
11,2,382,f42887_e_160,1,1.062046846,1,10,1,4
11,2,383,f42887_e_240,1,0.994763061,1,10,2,4
11,2,384,f42887_e_249,1,2.727338117,1,10,1,4
11,2,385,f42887_e_226,1,1.128418506,1,9,2,3
11,2,386,f42887_e_073,1,1.195087818,1,10,1,4
11,2,387,f42887_e_099,1,1.461559286,1,10,1,4
11,2,388,f42887_e_231,1,0.895112474,1,10,1,4
11,2,389,f42887_e_141,1,0.594772083,1,9,1,3
11,2,390,f42887_e_005,1,0.728253661,1,9,1,3
11,2,391,f42887_e_086,1,0.928006682,1,10,1,4
11,2,392,f42887_e_000,1,1.761262659,1,9,2,3
11,2,393,f42887_e_129,1,1.061143924,1,10,1,4
11,2,394,f42887_e_140,1,1.593743039,1,10,2,4
11,2,395,f42887_e_111,1,0.960984066,1,10,2,4
11,2,396,f42887_e_275,1,0.961289632,0,9,2,4
11,2,397,f42887_e_046,1,0.994353421,1,10,1,4
11,2,398,f42887_e_165,1,0.66099224,1,9,1,3
11,2,399,f42887_e_072,1,0.794025119,0,10,2,3
11,2,400,f42887_e_106,1,0.860752423,1,9,1,3
11,2,401,f42887_e_120,1,1.864493017,1,10,1,4
11,2,402,f42887_e_232,1,1.226125517,1,9,1,3
11,2,403,f42887_e_145,1,2.058946313,1,10,2,4
11,2,404,f42887_e_284,1,0.927168237,1,10,2,4
11,2,405,f42887_e_194,1,0.793421405,1,10,2,4
11,2,406,f42887_e_138,1,0.893729089,1,9,2,3
11,2,407,f42887_e_197,1,0.69353806,1,10,2,4
11,2,408,f42887_e_042,1,0.993432439,1,10,1,4
11,2,409,f42887_e_048,1,0.926519301,1,9,1,3
11,2,410,f42887_e_251,1,1.192761579,0,10,2,3
11,2,411,f42887_e_116,1,1.192880477,1,9,1,3
11,2,412,f42887_e_146,1,0.759454671,1,10,1,4
11,2,413,f42887_e_286,1,1.459574436,1,10,1,4
11,2,414,f42887_e_069,1,0.826146866,1,9,2,3
11,2,415,f42887_e_258,1,0.75945196,1,10,1,4
11,2,416,f42887_e_273,1,0.792797,1,10,2,4
11,2,417,f42887_e_188,1,1.025766113,1,9,1,3
11,2,418,f42887_e_114,1,0.959430134,1,9,2,3
11,2,419,f42887_e_060,1,0.792589881,1,9,1,3
11,2,420,f42887_e_229,1,0.759208563,1,9,1,3
11,2,421,f42887_e_244,1,0.792199966,1,10,1,4
11,2,422,f42887_e_007,1,0.692701262,1,10,1,4
11,2,423,f42887_e_292,1,1.092184679,1,9,2,3
11,2,424,f42887_e_272,1,1.025639848,1,9,2,3
11,2,425,f42887_e_152,1,0.792049287,1,10,1,4
11,2,426,f42887_e_136,1,1.158725827,1,9,2,3
11,2,427,f42887_e_186,1,1.325020602,1,10,2,4
11,2,428,f42887_e_036,1,1.025297267,1,10,2,4
11,2,429,f42887_e_062,1,1.007810667,1,9,2,3
11,2,430,f42887_e_037,1,0.891492109,1,10,1,4
11,2,431,f42887_e_131,1,2.25747682,1,9,1,3
11,2,432,f42887_e_180,1,1.257939785,1,9,2,3
11,2,433,f42887_e_118,1,0.890941237,1,9,2,3
11,2,434,f42887_e_205,1,0.891367816,1,10,1,4
11,2,435,f42887_e_147,1,0.924599789,1,10,2,4
11,2,436,f42887_e_002,1,0.858093179,1,9,1,3
11,2,437,f42887_e_177,1,0.791163658,1,9,2,3
11,2,438,f42887_e_051,1,0.926313446,1,9,1,3
11,2,439,f42887_e_169,1,0.838205347,1,10,2,4
11,2,440,f42887_e_228,1,0.757900753,1,9,2,3
11,2,441,f42887_e_020,1,0.890800399,1,10,1,4
11,2,442,f42887_e_108,1,0.724365757,1,9,2,3
11,2,443,f42887_e_112,1,0.774137709,1,9,1,3
11,2,444,f42887_e_134,1,1.107409931,1,10,2,4
11,2,445,f42887_e_253,1,1.306954852,1,9,2,3
11,2,446,f42887_e_052,1,1.640284051,1,9,2,3
11,2,447,f42887_e_004,1,1.440123143,1,9,1,3
11,2,448,f42887_e_285,1,0.90737266,1,9,1,3
11,2,449,f42887_e_142,1,0.973772099,1,10,2,4
11,2,450,f42887_e_190,1,1.273789172,1,10,1,4
11,2,451,f42887_e_156,1,1.489801685,1,10,2,4
11,2,452,f42887_e_079,1,0.773186497,1,10,2,4
11,2,453,f42887_e_261,1,0.723644172,1,9,2,3
11,2,454,f42887_e_262,1,2.139648389,1,10,2,4
11,2,455,f42887_e_084,1,1.929950229,1,9,2,3
11,2,456,f42887_e_045,1,1.339842094,1,9,2,3
11,2,457,f42887_e_218,1,1.272850513,1,10,1,4
11,2,458,f42887_e_049,1,1.672909694,1,10,2,4
11,2,459,f42887_e_022,1,1.37282361,1,10,1,4
11,2,460,f42887_e_057,1,1.605212445,1,9,2,3
11,2,461,f42887_e_288,1,1.172428289,1,10,1,4
11,2,462,f42887_e_254,1,1.805918553,1,10,1,4
11,2,463,f42887_e_199,1,2.471875856,1,10,2,4
11,2,464,f42887_e_137,1,1.172780888,1,9,2,3
11,2,465,f42887_e_017,1,1.305742071,1,9,1,3
11,2,466,f42887_e_130,1,0.839426621,1,9,1,3
11,2,467,f42887_e_008,1,0.971801797,1,9,2,3
11,2,468,f42887_e_139,1,0.605930251,1,9,2,3
11,2,469,f42887_e_178,1,0.80542086,1,9,2,3
11,2,470,f42887_e_276,1,0.938914822,1,9,1,3
11,2,471,f42887_e_264,1,0.9715144,1,10,1,4
11,2,472,f42887_e_250,1,0.694614545,0,10,1,3
11,2,473,f42887_e_055,1,0.471479424,0,10,1,3
11,2,474,f42887_e_119,1,0.105881317,0,10,1,3
11,2,475,f42887_e_203,1,0.171513817,0,10,2,3
11,2,476,f42887_e_157,1,0.505196202,1,10,1,4
11,2,477,f42887_e_018,1,0.638417428,1,10,1,4
11,2,478,f42887_e_088,1,0.838362155,1,9,2,3
11,2,479,f42887_e_115,1,0.638180983,1,9,2,3
11,2,480,f42887_e_295,1,1.704724842,1,10,2,4
11,2,481,f42887_e_223,1,1.437698731,1,9,1,3
11,2,482,f42887_e_163,1,1.304644959,1,10,2,4
11,2,483,f42887_e_150,1,3.137043093,1,9,2,3
11,2,484,f42887_e_233,1,1.337757872,1,10,1,4
11,2,485,f42887_e_090,1,2.603659251,1,9,2,3
11,2,486,f42887_e_103,1,1.904049632,1,10,1,4
11,2,487,f42887_e_183,1,0.87086523,1,9,1,3
11,2,488,f42887_e_266,1,0.864034057,1,9,2,3
11,2,489,f42887_e_282,1,0.92690769,1,9,1,3
11,2,490,f42887_e_067,1,0.759696898,1,10,2,4
11,2,491,f42887_e_056,1,1.197416072,1,10,1,4
11,2,492,f42887_e_014,1,1.170700587,1,9,2,3
11,2,493,f42887_e_066,1,0.863693534,1,9,1,3
11,2,494,f42887_e_109,1,0.830823558,1,9,2,3
11,2,495,f42887_e_168,1,0.797089942,1,10,2,4
11,2,496,f42887_e_170,1,0.730430807,1,10,1,4
11,2,497,f42887_e_043,1,0.597203949,1,10,1,4
11,2,498,f42887_e_093,1,0.763811113,1,9,2,3
11,2,499,f42887_e_215,1,0.630117465,1,10,1,4
11,2,500,f42887_e_298,1,1.09667273,1,9,1,3
11,2,501,f42887_e_110,1,1.264757477,1,10,1,4
11,2,502,f42887_e_127,1,1.129043595,1,9,2,3
11,2,503,f42887_e_209,1,1.229101951,1,10,2,4
11,2,504,f42887_e_102,1,1.162332417,1,10,2,4
11,2,505,f42887_e_299,1,0.99610189,1,9,2,3
11,2,506,f42887_e_278,1,1.429562831,1,10,1,4
11,2,507,f42887_e_287,1,1.02852,1,9,2,3
11,2,508,f42887_e_289,1,1.462402814,1,10,2,4
11,2,509,f42887_e_217,1,1.528883282,1,10,2,4
11,2,510,f42887_e_001,1,0.895886194,1,10,2,4
11,2,511,f42887_e_241,1,0.962825865,1,9,1,3
11,2,512,f42887_e_011,1,0.696057576,1,10,2,4
11,2,513,f42887_e_270,1,0.729363638,1,9,1,3
11,2,514,f42887_e_293,1,0.662650112,1,9,1,3
11,2,515,f42887_e_024,1,0.829128284,1,9,2,3
11,2,516,f42887_e_265,1,0.729321725,1,9,2,3
11,2,517,f42887_e_219,1,0.629018233,1,9,2,3
11,2,518,f42887_e_077,1,0.828864824,1,10,1,4
11,2,519,f42887_e_193,1,0.75813571,1,10,2,4
11,2,520,f42887_e_230,1,0.79538412,1,9,1,3
11,2,521,f42887_e_047,1,0.795418906,1,10,1,4
11,2,522,f42887_e_200,1,0.695581598,1,9,1,3
11,2,523,f42887_e_133,1,0.661929753,1,9,2,3
11,2,524,f42887_e_290,1,0.828638672,1,10,2,4
11,2,525,f42887_e_167,1,0.628513349,1,9,2,3
11,2,526,f42887_e_076,1,0.661810347,1,10,2,4
11,2,527,f42887_e_207,1,0.76134745,1,9,1,3
11,2,528,f42887_e_221,1,0.828128363,1,10,2,4
11,2,529,f42887_e_238,1,1.061086936,1,9,1,3
11,2,530,f42887_e_124,1,0.728382453,1,10,2,4
11,2,531,f42887_e_158,1,0.794559299,1,9,2,3
11,2,532,f42887_e_195,1,0.758591444,1,9,1,3
11,2,533,f42887_e_071,1,0.727777544,1,10,2,4
11,2,534,f42887_e_192,1,0.794018912,1,9,1,3
11,2,535,f42887_e_091,1,0.660709885,1,9,2,3
11,2,536,f42887_e_144,1,0.660152216,1,9,2,3
11,2,537,f42887_e_296,1,0.661072947,1,10,2,4
11,2,538,f42887_e_164,1,0.62732341,1,9,2,3
11,2,539,f42887_e_227,1,0.694218691,1,9,1,3
11,2,540,f42887_e_061,1,0.727309243,1,9,1,3
11,2,541,f42887_e_123,1,0.727711022,1,10,2,4
11,2,542,f42887_e_009,1,0.6272157,1,9,2,3
11,2,543,f42887_e_063,1,0.960486814,1,10,1,4
11,2,544,f42887_e_028,1,0.593535776,1,9,2,3
11,2,545,f42887_e_087,1,1.326947724,1,10,1,4
11,2,546,f42887_e_032,1,0.726962659,1,9,2,3
11,2,547,f42887_e_172,1,0.627363899,1,9,2,3
11,2,548,f42887_e_161,1,0.693594154,1,9,1,3
11,2,549,f42887_e_189,1,0.660133438,1,9,2,3
11,2,550,f42887_e_271,1,0.693245122,1,9,1,3
11,2,551,f42887_e_269,1,0.62491574,1,9,2,3
11,2,552,f42887_e_040,1,0.626405789,1,9,2,3
11,2,553,f42887_e_211,1,0.55967491,1,9,2,3
11,2,554,f42887_e_191,1,0.692798806,1,9,1,3
11,2,555,f42887_e_015,1,0.826217136,1,9,1,3
11,2,556,f42887_e_237,1,0.759139414,1,10,1,4
11,2,557,f42887_e_182,1,0.892677142,1,9,2,3
11,2,558,f42887_e_257,1,0.69256268,1,9,1,3
11,2,559,f42887_e_031,1,0.659382913,1,9,1,3
11,2,560,f42887_e_075,1,0.692565248,1,9,1,3
11,2,561,f42887_e_198,1,0.759477888,1,10,2,4
11,2,562,f42887_e_297,1,0.791830905,1,10,2,4
11,2,563,f42887_e_235,1,0.894824532,1,10,1,4
11,2,564,f42887_e_279,1,0.725478328,1,9,2,3
11,2,565,f42887_e_179,1,0.792061347,1,10,2,4
11,2,566,f42887_e_153,1,0.924995222,1,10,2,4
11,2,567,f42887_e_184,1,0.825358973,1,10,1,4
11,2,568,f42887_e_033,1,0.725296419,1,10,1,4
11,2,569,f42887_e_208,1,0.69549414,1,10,1,4
11,2,570,f42887_e_281,1,0.691354045,1,9,2,3
11,2,571,f42887_e_260,1,0.958051647,1,10,2,4
11,2,572,f42887_e_058,1,0.891441222,1,10,1,4
11,2,573,f42887_e_121,1,1.258245013,1,10,1,4
11,2,574,f42887_e_143,1,0.924723521,0,10,2,3
11,2,575,f42887_e_038,1,0.391873434,1,10,1,4
11,2,576,f42887_e_122,1,0.001425956,0,9,1,4
11,2,577,f42887_e_224,1,0.401696981,1,10,2,4
11,2,578,f42887_e_053,1,0.108233477,0,10,2,3
11,2,579,f42887_e_132,1,0.34144672,1,10,1,4
11,2,580,f42887_e_176,1,0.141210432,0,9,2,4
11,2,581,f42887_e_126,1,0.341456111,1,10,1,4
11,2,582,f42887_e_035,1,0.624188944,1,10,1,4
11,2,583,f42887_e_092,1,0.72449932,1,9,1,3
11,2,584,f42887_e_113,1,0.674238236,1,9,1,3
11,2,585,f42887_e_010,1,0.657596156,1,10,1,4
11,2,586,f42887_e_294,1,1.473597922,1,9,2,3
11,2,587,f42887_e_246,1,0.756981835,1,10,2,4
11,2,588,f42887_e_277,1,0.761956987,1,10,2,4
11,2,589,f42887_e_019,1,0.724023015,1,10,2,4
11,2,590,f42887_e_255,1,1.006686329,1,9,2,3
11,2,591,f42887_e_064,1,0.723695701,1,10,2,4
11,2,592,f42887_e_155,1,0.692218336,1,10,1,4
11,2,593,f42887_e_274,1,0.740503103,1,9,2,3
11,2,594,f42887_e_245,1,0.723612811,1,10,2,4
11,2,595,f42887_e_148,1,0.873800104,1,10,1,4
11,2,596,f42887_e_083,1,0.806640111,1,9,1,3
11,2,597,f42887_e_159,1,0.673175996,1,9,2,3
11,2,598,f42887_e_117,1,0.706371435,1,10,1,4
11,2,599,f42887_e_252,1,0.673363141,1,10,1,4
11,2,600,f42887_e_206,1,0.906367863,1,9,1,3
12,1,1,f42887_e_106,1,2.363842723,0,9,2,4
12,1,2,f42887_e_168,1,1.591617471,1,10,2,4
12,1,3,f42887_e_214,1,1.59157378,0,9,1,4
12,1,4,f42887_e_013,1,1.026935376,1,10,2,4
12,1,5,f42887_e_154,1,0.693468643,1,10,1,4
12,1,6,f42887_e_075,1,0.626675415,0,9,1,4
12,1,7,f42887_e_282,1,1.35955787,1,10,1,4
12,1,8,f42887_e_036,1,3.492099859,1,10,2,4
12,1,9,f42887_e_257,1,1.458960064,1,9,1,3
12,1,10,f42887_e_239,1,0.326585657,1,9,2,3
12,1,11,f42887_e_102,1,0.126610684,1,9,2,3
12,1,12,f42887_e_138,1,0.14351857,0,10,2,3
12,1,13,f42887_e_236,1,0.001352235,1,9,2,3
12,1,14,f42887_e_250,1,0.001335419,0,10,2,3
12,1,15,f42887_e_042,1,0.001321412,1,10,1,4
12,1,16,f42887_e_014,1,0.001338055,1,10,2,4
12,1,17,f42887_e_071,1,0.057389108,0,10,2,3
12,1,18,f42887_e_219,1,0.042735367,1,9,1,3
12,1,19,f42887_e_164,1,0.059469567,1,10,2,4
12,1,20,f42887_e_256,1,0.00141911,0,10,2,3
12,1,21,f42887_e_137,1,0.115832753,0,10,2,3
12,1,22,f42887_e_141,1,0.001351378,1,10,1,4
12,1,23,f42887_e_105,1,0.298836965,1,9,2,3
12,1,24,f42887_e_196,1,0.001363674,1,10,1,4
12,1,25,f42887_e_206,1,0.035080031,1,9,1,3
12,1,26,f42887_e_032,1,0.192092497,0,10,1,3
12,1,27,f42887_e_264,1,0.001319769,1,10,2,4
12,1,28,f42887_e_116,1,0.068756876,0,10,2,3
12,1,29,f42887_e_260,1,0.001354389,0,9,1,4
12,1,30,f42887_e_192,1,0.001364058,1,10,2,4
12,1,31,f42887_e_237,1,0.128593977,1,9,1,3
12,1,32,f42887_e_114,1,0.1915342,0,10,1,3
12,1,33,f42887_e_129,1,0.174055825,1,9,2,3
12,1,34,f42887_e_209,1,0.224727605,0,10,1,3
12,1,35,f42887_e_091,1,0.223980614,0,10,2,3
12,1,36,f42887_e_199,1,0.001369298,1,10,1,4
12,1,37,f42887_e_247,1,0.001355509,0,9,1,4
12,1,38,f42887_e_110,1,0.19040384,0,10,1,3
12,1,39,f42887_e_195,1,0.207147073,0,10,2,3
12,1,40,f42887_e_200,1,0.190367671,1,9,1,3
12,1,41,f42887_e_058,1,0.273587462,1,9,1,3
12,1,42,f42887_e_170,1,0.001370392,1,10,1,4
12,1,43,f42887_e_202,1,0.299963149,0,10,1,3
12,1,44,f42887_e_203,1,0.073502763,1,10,2,4
12,1,45,f42887_e_083,1,0.001303164,0,9,2,4
12,1,46,f42887_e_267,1,0.001302438,1,10,1,4
12,1,47,f42887_e_244,1,0.089711899,0,9,1,4
12,1,48,f42887_e_224,1,0.539652519,1,10,2,4
12,1,49,f42887_e_018,1,0.172990562,1,10,1,4
12,1,50,f42887_e_201,1,0.001336126,1,10,2,4
12,1,51,f42887_e_248,1,3.547846459,1,10,2,4
12,1,52,f42887_e_172,1,10.00154783,-1,10,2,0
12,1,53,f42887_e_130,1,5.436511668,1,10,2,4
12,1,54,f42887_e_145,1,3.370685322,1,9,1,3
12,1,55,f42887_e_104,1,10.00116384,-1,9,2,0
12,1,56,f42887_e_297,1,8.901849324,0,9,2,4
12,1,57,f42887_e_140,1,2.87127106,1,9,1,3
12,1,58,f42887_e_186,1,1.838337306,1,10,2,4
12,1,59,f42887_e_026,1,0.638542894,1,10,1,4
12,1,60,f42887_e_135,1,0.372188771,1,9,2,3
12,1,61,f42887_e_025,1,0.30537637,0,10,2,3
12,1,62,f42887_e_085,1,0.338708887,1,9,2,3
12,1,63,f42887_e_155,1,0.001275495,1,9,1,3
12,1,64,f42887_e_285,1,0.001384013,0,9,1,4
12,1,65,f42887_e_108,1,0.025330912,0,10,1,3
12,1,66,f42887_e_055,1,0.138531102,1,9,2,3
12,1,67,f42887_e_099,1,0.104959914,0,10,1,3
12,1,68,f42887_e_053,1,0.001413926,0,10,2,3
12,1,69,f42887_e_234,1,0.00138955,0,9,1,4
12,1,70,f42887_e_222,1,0.144639434,1,9,2,3
12,1,71,f42887_e_281,1,0.001312769,0,9,1,4
12,1,72,f42887_e_131,1,0.001384084,0,9,1,4
12,1,73,f42887_e_134,1,0.071114213,1,9,1,3
12,1,74,f42887_e_060,1,0.164146674,1,9,1,3
12,1,75,f42887_e_028,1,0.131109482,0,10,1,3
12,1,76,f42887_e_233,1,0.001365754,0,9,2,4
12,1,77,f42887_e_204,1,0.057640636,1,9,1,3
12,1,78,f42887_e_056,1,0.230826513,0,10,2,3
12,1,79,f42887_e_004,1,0.247006957,0,10,1,3
12,1,80,f42887_e_299,1,0.164313583,0,10,2,3
12,1,81,f42887_e_268,1,0.001331209,1,9,1,3
12,1,82,f42887_e_182,1,0.037305861,0,9,2,4
12,1,83,f42887_e_269,1,0.001350419,0,10,1,3
12,1,84,f42887_e_081,1,0.136176645,0,10,1,3
12,1,85,f42887_e_033,1,0.001334979,1,10,1,4
12,1,86,f42887_e_074,1,0.001392629,0,9,2,4
12,1,87,f42887_e_156,1,0.03033799,1,9,1,3
12,1,88,f42887_e_057,1,0.080411541,0,9,1,4
12,1,89,f42887_e_117,1,0.001353092,0,9,1,4
12,1,90,f42887_e_211,1,0.136685337,0,10,1,3
12,1,91,f42887_e_024,1,0.096818844,0,10,1,3
12,1,92,f42887_e_166,1,0.001514012,0,10,1,3
12,1,93,f42887_e_068,1,0.001353235,1,9,1,3
12,1,94,f42887_e_241,1,0.0781672,0,10,2,3
12,1,95,f42887_e_041,1,0.001319269,0,10,2,3
12,1,96,f42887_e_173,1,0.00128951,1,9,2,3
12,1,97,f42887_e_194,1,0.229376,0,10,1,3
12,1,98,f42887_e_212,1,0.001297837,0,10,2,3
12,1,99,f42887_e_207,1,2.501517482,0,10,1,3
12,1,100,f42887_e_009,1,0.895595877,0,10,1,3
12,1,101,f42887_e_076,1,2.964215797,1,9,1,3
12,1,102,f42887_e_049,1,1.09552605,0,10,1,3
12,1,103,f42887_e_163,1,0.001323637,1,9,2,3
12,1,104,f42887_e_006,1,0.068977788,0,10,2,3
12,1,105,f42887_e_050,1,0.578667781,1,9,2,3
12,1,106,f42887_e_235,1,10.02415039,-1,9,1,0
12,1,107,f42887_e_127,1,9.890599029,1,9,1,3
12,1,108,f42887_e_167,1,2.560786761,0,10,2,3
12,1,109,f42887_e_088,1,2.361123363,1,9,2,3
12,1,110,f42887_e_139,1,1.195057224,1,9,2,3
12,1,111,f42887_e_147,1,0.261889831,0,10,1,3
12,1,112,f42887_e_052,1,0.001294265,1,9,2,3
12,1,113,f42887_e_001,1,0.168193585,0,10,1,3
12,1,114,f42887_e_184,1,0.361230406,1,9,2,3
12,1,115,f42887_e_161,1,1.794163397,0,10,2,3
12,1,116,f42887_e_183,1,0.827924436,1,9,1,3
12,1,117,f42887_e_189,1,2.771838644,0,10,2,3
12,1,118,f42887_e_193,1,1.660639751,0,10,1,3
12,1,119,f42887_e_132,1,0.92754773,0,10,2,3
12,1,120,f42887_e_232,1,0.194216876,0,10,2,3
12,1,121,f42887_e_226,1,0.161149613,1,9,2,3
12,1,122,f42887_e_298,1,0.943179381,0,10,2,3
12,1,123,f42887_e_274,1,0.060888211,0,10,1,3
12,1,124,f42887_e_150,1,1.193724516,1,9,1,3
12,1,125,f42887_e_262,1,3.192824201,0,10,1,3
12,1,126,f42887_e_087,1,3.059216203,0,10,1,3
12,1,127,f42887_e_287,1,0.127547598,1,9,1,3
12,1,128,f42887_e_078,1,0.001328152,0,10,2,3
12,1,129,f42887_e_283,1,0.167221975,1,9,1,3
12,1,130,f42887_e_030,1,0.127141804,0,10,1,3
12,1,131,f42887_e_039,1,0.160297735,1,9,2,3
12,1,132,f42887_e_277,1,0.077082283,0,10,2,3
12,1,133,f42887_e_017,1,0.326415971,0,10,1,3
12,1,134,f42887_e_148,1,0.126512301,1,9,1,3
12,1,135,f42887_e_062,1,0.001299288,0,10,2,3
12,1,136,f42887_e_243,1,0.070099374,0,10,1,3
12,1,137,f42887_e_094,1,0.226725625,1,9,1,3
12,1,138,f42887_e_272,1,0.001349697,1,9,1,3
12,1,139,f42887_e_181,1,0.001380701,0,10,2,3
12,1,140,f42887_e_069,1,0.626327214,1,9,2,3
12,1,141,f42887_e_275,1,0.526157116,1,9,1,3
12,1,142,f42887_e_221,1,0.09262157,1,9,2,3
12,1,143,f42887_e_266,1,0.092683355,0,10,2,3
12,1,144,f42887_e_174,1,0.075912821,0,10,1,3
12,1,145,f42887_e_067,1,0.001271013,1,9,1,3
12,1,146,f42887_e_011,1,0.132593062,0,10,1,3
12,1,147,f42887_e_254,1,0.001339599,1,9,1,3
12,1,148,f42887_e_144,1,0.035976818,0,10,1,3
12,1,149,f42887_e_044,1,0.001264074,0,10,2,3
12,1,150,f42887_e_153,1,0.182583121,1,9,2,3
12,1,151,f42887_e_171,1,0.192259307,1,9,2,3
12,1,152,f42887_e_128,1,0.125448586,1,9,1,3
12,1,153,f42887_e_029,1,0.208623205,0,10,2,3
12,1,154,f42887_e_066,1,0.09200689,0,10,2,3
12,1,155,f42887_e_093,1,0.001347791,0,10,2,3
12,1,156,f42887_e_048,1,0.048860804,1,9,2,3
12,1,157,f42887_e_002,1,0.058497795,1,9,2,3
12,1,158,f42887_e_123,1,0.591803578,0,10,2,3
12,1,159,f42887_e_124,1,0.001297957,0,10,1,3
12,1,160,f42887_e_190,1,0.131778086,0,10,1,3
12,1,161,f42887_e_246,1,0.141695677,0,9,1,4
12,1,162,f42887_e_005,1,0.158949298,0,10,1,3
12,1,163,f42887_e_197,1,0.224694831,1,9,1,3
12,1,164,f42887_e_252,1,0.001450678,1,9,1,3
12,1,165,f42887_e_215,1,0.101429266,0,10,1,3
12,1,166,f42887_e_178,1,0.240895899,1,9,2,3
12,1,167,f42887_e_198,1,0.274405137,1,9,1,3
12,1,168,f42887_e_286,1,0.024474821,0,9,1,4
12,1,169,f42887_e_292,1,0.257509412,1,9,2,3
12,1,170,f42887_e_007,1,1.607018692,1,9,1,3
12,1,171,f42887_e_175,1,1.82323223,1,9,2,3
12,1,172,f42887_e_136,1,0.39033278,0,9,2,4
12,1,173,f42887_e_045,1,0.674040279,0,10,1,3
12,1,174,f42887_e_259,1,0.656991908,0,9,2,4
12,1,175,f42887_e_080,1,1.440106323,1,10,1,4
12,1,176,f42887_e_176,1,0.340449931,1,10,1,4
12,1,177,f42887_e_187,1,0.140307217,0,9,2,4
12,1,178,f42887_e_291,1,0.001306746,1,10,1,4
12,1,179,f42887_e_225,1,0.001360017,0,10,1,3
12,1,180,f42887_e_149,1,0.001354821,0,10,2,3
12,1,181,f42887_e_169,1,0.001329908,1,10,2,4
12,1,182,f42887_e_293,1,0.001405324,0,10,1,3
12,1,183,f42887_e_021,1,0.001445742,0,10,1,3
12,1,184,f42887_e_276,1,0.001386024,0,9,1,4
12,1,185,f42887_e_111,1,0.001349633,0,10,2,3
12,1,186,f42887_e_133,1,0.001386607,1,9,1,3
12,1,187,f42887_e_253,1,0.001365396,0,10,1,3
12,1,188,f42887_e_227,1,0.001437031,1,9,1,3
12,1,189,f42887_e_034,1,0.00134634,1,10,2,4
12,1,190,f42887_e_096,1,0.039785475,1,9,2,3
12,1,191,f42887_e_152,1,0.172567779,0,10,1,3
12,1,192,f42887_e_113,1,0.339401017,1,9,1,3
12,1,193,f42887_e_218,1,0.305895531,1,9,1,3
12,1,194,f42887_e_290,1,0.139261702,1,10,2,4
12,1,195,f42887_e_109,1,0.001275949,0,10,2,3
12,1,196,f42887_e_177,1,0.001287239,0,9,1,4
12,1,197,f42887_e_165,1,0.159102752,0,10,1,3
12,1,198,f42887_e_097,1,0.072436474,0,9,1,4
12,1,199,f42887_e_086,1,0.038828936,0,10,2,3
12,1,200,f42887_e_251,1,0.038878703,0,9,1,4
12,1,201,f42887_e_210,1,1.031811442,0,10,2,3
12,1,202,f42887_e_284,1,0.001342614,1,9,1,3
12,1,203,f42887_e_288,1,0.198692261,1,10,1,4
12,1,204,f42887_e_263,1,0.001342392,0,9,2,4
12,1,205,f42887_e_051,1,0.098277642,1,9,2,3
12,1,206,f42887_e_245,1,0.001323776,1,9,1,3
12,1,207,f42887_e_059,1,0.138210289,1,10,1,4
12,1,208,f42887_e_003,1,0.164866165,1,9,1,3
12,1,209,f42887_e_146,1,0.264345288,0,9,1,4
12,1,210,f42887_e_270,1,0.001329645,1,10,1,4
12,1,211,f42887_e_035,1,0.001320712,1,9,1,3
12,1,212,f42887_e_120,1,0.031241833,1,10,1,4
12,1,213,f42887_e_122,1,0.330962731,0,10,1,3
12,1,214,f42887_e_084,1,0.097705864,0,9,1,4
12,1,215,f42887_e_047,1,0.064513828,1,9,1,3
12,1,216,f42887_e_143,1,0.04790227,0,9,2,4
12,1,217,f42887_e_162,1,0.126543609,1,9,2,3
12,1,218,f42887_e_240,1,0.001461997,1,9,2,3
12,1,219,f42887_e_180,1,0.280531705,1,9,1,3
12,1,220,f42887_e_191,1,0.097420833,0,10,1,3
12,1,221,f42887_e_107,1,0.06417092,0,10,2,3
12,1,222,f42887_e_015,1,0.113588728,1,9,2,3
12,1,223,f42887_e_159,1,0.001308043,1,9,2,3
12,1,224,f42887_e_046,1,0.00136243,1,9,2,3
12,1,225,f42887_e_158,1,0.001303758,1,10,2,4
12,1,226,f42887_e_231,1,0.135907906,1,9,1,3
12,1,227,f42887_e_022,1,0.001389663,0,9,2,4
12,1,228,f42887_e_255,1,0.001352904,0,9,2,4
12,1,229,f42887_e_090,1,0.001336216,1,9,2,3
12,1,230,f42887_e_019,1,0.036690493,1,10,2,4
12,1,231,f42887_e_061,1,0.001292836,0,9,1,4
12,1,232,f42887_e_101,1,0.001426276,1,9,1,3
12,1,233,f42887_e_205,1,0.001321404,0,10,2,3
12,1,234,f42887_e_064,1,0.069602708,1,9,1,3
12,1,235,f42887_e_142,1,0.001296168,1,10,2,4
12,1,236,f42887_e_027,1,0.001402339,1,9,1,3
12,1,237,f42887_e_023,1,0.001303724,1,10,1,4
12,1,238,f42887_e_238,1,0.001459437,0,10,2,3
12,1,239,f42887_e_217,1,0.001392915,1,9,1,3
12,1,240,f42887_e_280,1,0.001435734,0,10,1,3
12,1,241,f42887_e_031,1,0.001369862,1,10,2,4
12,1,242,f42887_e_072,1,0.001423482,1,9,2,3
12,1,243,f42887_e_249,1,0.001306919,0,9,2,4
12,1,244,f42887_e_010,1,0.001431087,0,10,1,3
12,1,245,f42887_e_228,1,0.028784591,1,10,1,4
12,1,246,f42887_e_258,1,0.001397163,1,9,1,3
12,1,247,f42887_e_043,1,0.071725362,1,9,1,3
12,1,248,f42887_e_040,1,0.028198287,1,10,2,4
12,1,249,f42887_e_220,1,0.095155612,0,9,2,4
12,1,250,f42887_e_098,1,0.161808503,0,10,1,3
12,1,251,f42887_e_112,1,0.001390381,0,10,1,3
12,1,252,f42887_e_289,1,0.168184533,1,9,2,3
12,1,253,f42887_e_065,1,0.061420823,1,10,2,4
12,1,254,f42887_e_070,1,0.001400828,0,10,2,3
12,1,255,f42887_e_092,1,0.001388753,0,9,2,4
12,1,256,f42887_e_079,1,0.294738961,1,10,2,4
12,1,257,f42887_e_063,1,0.327855502,0,10,2,3
12,1,258,f42887_e_271,1,0.194349988,1,9,1,3
12,1,259,f42887_e_179,1,0.211187495,0,10,1,3
12,1,260,f42887_e_188,1,0.061190663,1,9,1,3
12,1,261,f42887_e_008,1,0.027858988,0,10,1,3
12,1,262,f42887_e_077,1,0.001370445,0,10,2,3
12,1,263,f42887_e_125,1,0.036848804,0,10,1,3
12,1,264,f42887_e_089,1,0.127536861,0,9,1,4
12,1,265,f42887_e_278,1,0.001303652,1,10,2,4
12,1,266,f42887_e_213,1,0.001357633,1,9,2,3
12,1,267,f42887_e_095,1,0.001247931,1,9,2,3
12,1,268,f42887_e_279,1,0.001331186,0,10,2,3
12,1,269,f42887_e_038,1,0.130409393,1,10,2,4
12,1,270,f42887_e_012,1,0.126936463,0,10,1,3
12,1,271,f42887_e_151,1,0.001293032,0,10,2,3
12,1,272,f42887_e_223,1,0.103810742,0,10,2,3
12,1,273,f42887_e_230,1,0.226788639,0,10,2,3
12,1,274,f42887_e_103,1,0.343304782,0,10,2,3
12,1,275,f42887_e_160,1,0.126768893,0,10,2,3
12,1,276,f42887_e_265,1,0.226729598,1,9,2,3
12,1,277,f42887_e_294,1,0.109530986,0,10,2,3
12,1,278,f42887_e_216,1,0.026312342,0,10,1,3
12,1,279,f42887_e_208,1,0.001295363,1,9,2,3
12,1,280,f42887_e_037,1,0.001326246,0,10,1,3
12,1,281,f42887_e_296,1,0.001307836,0,10,2,3
12,1,282,f42887_e_054,1,0.001382061,0,10,2,3
12,1,283,f42887_e_016,1,0.182219898,1,9,1,3
12,1,284,f42887_e_082,1,0.059272117,1,9,2,3
12,1,285,f42887_e_000,1,0.001249517,1,9,2,3
12,1,286,f42887_e_295,1,0.415750523,1,9,2,3
12,1,287,f42887_e_261,1,0.001308848,0,10,1,3
12,1,288,f42887_e_073,1,0.001386949,0,10,1,3
12,1,289,f42887_e_020,1,1.275097531,1,10,1,4
12,1,290,f42887_e_157,1,1.191552445,1,10,2,4
12,1,291,f42887_e_100,1,0.058628016,1,10,2,4
12,1,292,f42887_e_242,1,0.025145933,0,9,2,4
12,1,293,f42887_e_185,1,0.001282431,1,10,2,4
12,1,294,f42887_e_273,1,0.001399336,1,10,2,4
12,1,295,f42887_e_121,1,0.001337656,0,9,2,4
12,1,296,f42887_e_229,1,0.001454005,1,9,2,3
12,1,297,f42887_e_126,1,0.067913559,1,9,1,3
12,1,298,f42887_e_118,1,0.001431298,0,9,2,4
12,1,299,f42887_e_115,1,0.464526501,1,9,2,3
12,1,300,f42887_e_119,1,0.058637734,0,9,2,4
12,2,301,f42887_e_221,1,1.198748021,1,9,1,3
12,2,302,f42887_e_028,1,1.804736588,1,10,2,4
12,2,303,f42887_e_135,1,0.324622961,0,10,1,3
12,2,304,f42887_e_242,1,0.174423661,0,9,2,4
12,2,305,f42887_e_104,1,0.641270656,1,9,2,3
12,2,306,f42887_e_099,1,0.208168043,1,9,1,3
12,2,307,f42887_e_287,1,0.00133902,0,10,1,3
12,2,308,f42887_e_165,1,0.001326397,1,10,1,4
12,2,309,f42887_e_195,1,0.260944673,0,10,2,3
12,2,310,f42887_e_101,1,0.001332412,1,9,1,3
12,2,311,f42887_e_190,1,0.001347874,0,10,1,3
12,2,312,f42887_e_026,1,0.26084876,1,9,2,3
12,2,313,f42887_e_112,1,0.001370464,0,10,1,3
12,2,314,f42887_e_232,1,0.347161559,1,9,1,3
12,2,315,f42887_e_113,1,0.090589881,0,10,1,3
12,2,316,f42887_e_208,1,0.057375758,1,9,2,3
12,2,317,f42887_e_030,1,0.001275735,1,9,2,3
12,2,318,f42887_e_178,1,0.001372212,1,9,1,3
12,2,319,f42887_e_106,1,0.632891863,0,9,1,4
12,2,320,f42887_e_285,1,0.273800547,0,9,2,4
12,2,321,f42887_e_263,1,0.306303318,1,10,1,4
12,2,322,f42887_e_111,1,0.506461095,0,10,2,3
12,2,323,f42887_e_186,1,0.273331099,1,9,1,3
12,2,324,f42887_e_234,1,0.339873506,0,10,1,3
12,2,325,f42887_e_291,1,0.427190505,1,9,1,3
12,2,326,f42887_e_241,1,0.572848672,0,9,2,4
12,2,327,f42887_e_200,1,0.33958329,1,10,1,4
12,2,328,f42887_e_007,1,0.139802898,0,9,2,4
12,2,329,f42887_e_204,1,0.372724463,1,10,1,4
12,2,330,f42887_e_090,1,0.139446768,1,10,1,4
12,2,331,f42887_e_162,1,0.001372862,0,9,1,4
12,2,332,f42887_e_168,1,0.001420617,1,9,2,3
12,2,333,f42887_e_076,1,0.12558165,0,10,1,3
12,2,334,f42887_e_172,1,0.001454385,0,10,1,3
12,2,335,f42887_e_000,1,0.00144864,0,10,2,3
12,2,336,f42887_e_126,1,0.092185893,0,10,1,3
12,2,337,f42887_e_132,1,0.104525969,1,10,1,4
12,2,338,f42887_e_068,1,0.138330773,1,10,2,4
12,2,339,f42887_e_233,1,0.071887012,1,10,1,4
12,2,340,f42887_e_218,1,0.071723024,1,10,1,4
12,2,341,f42887_e_196,1,0.071778054,1,10,1,4
12,2,342,f42887_e_170,1,0.071879053,0,9,2,4
12,2,343,f42887_e_075,1,0.001349565,1,10,1,4
12,2,344,f42887_e_280,1,0.0014462,1,10,2,4
12,2,345,f42887_e_108,1,0.124617878,1,10,2,4
12,2,346,f42887_e_213,1,0.338015515,0,9,2,4
12,2,347,f42887_e_146,1,0.238061059,0,9,2,4
12,2,348,f42887_e_238,1,0.298114632,1,10,1,4
12,2,349,f42887_e_118,1,0.897899886,1,10,1,4
12,2,350,f42887_e_276,1,0.730747918,0,9,2,4
12,2,351,f42887_e_120,1,0.531112246,0,9,2,4
12,2,352,f42887_e_105,1,0.09798958,1,10,2,4
12,2,353,f42887_e_141,1,1.030882212,1,10,1,4
12,2,354,f42887_e_224,1,0.331311729,0,9,1,4
12,2,355,f42887_e_080,1,1.863629689,1,9,2,3
12,2,356,f42887_e_270,1,0.864182797,1,10,1,4
12,2,357,f42887_e_147,1,0.763946342,1,9,1,3
12,2,358,f42887_e_140,1,1.22997023,1,9,2,3
12,2,359,f42887_e_248,1,0.830395332,1,10,1,4
12,2,360,f42887_e_078,1,0.630200033,1,10,1,4
12,2,361,f42887_e_050,1,1.562895808,1,9,1,3
12,2,362,f42887_e_059,1,2.662789936,1,10,2,4
12,2,363,f42887_e_095,1,1.396645725,1,9,2,3
12,2,364,f42887_e_175,1,3.262169855,1,9,2,3
12,2,365,f42887_e_193,1,0.001408873,1,10,1,4
12,2,366,f42887_e_098,1,0.069809057,0,9,2,4
12,2,367,f42887_e_021,1,0.00132101,1,9,1,3
12,2,368,f42887_e_110,1,0.036996423,0,10,2,3
12,2,369,f42887_e_214,1,0.129805258,0,10,1,3
12,2,370,f42887_e_202,1,0.001413144,1,10,2,4
12,2,371,f42887_e_256,1,0.00132931,1,10,2,4
12,2,372,f42887_e_041,1,0.070042837,1,9,2,3
12,2,373,f42887_e_229,1,0.029578435,1,10,1,4
12,2,374,f42887_e_264,1,0.296212495,1,9,1,3
12,2,375,f42887_e_083,1,0.062741641,1,10,2,4
12,2,376,f42887_e_065,1,0.001348032,1,10,1,4
12,2,377,f42887_e_275,1,0.072357944,1,10,2,4
12,2,378,f42887_e_033,1,0.001318122,1,10,2,4
12,2,379,f42887_e_235,1,0.0012601,0,10,2,3
12,2,380,f42887_e_144,1,0.369141206,0,9,2,4
12,2,381,f42887_e_069,1,0.22914425,0,9,2,4
12,2,382,f42887_e_215,1,0.229204535,0,9,2,4
12,2,383,f42887_e_082,1,0.00134931,0,10,1,3
12,2,384,f42887_e_107,1,0.105648454,1,9,1,3
12,2,385,f42887_e_116,1,0.001377441,0,10,2,3
12,2,386,f42887_e_131,1,0.052415835,0,10,2,3
12,2,387,f42887_e_265,1,0.49516862,0,9,1,4
12,2,388,f42887_e_089,1,2.094525393,1,9,2,3
12,2,389,f42887_e_018,1,1.594720889,1,9,1,3
12,2,390,f42887_e_258,1,2.627133925,0,10,2,3
12,2,391,f42887_e_031,1,0.928206508,1,9,1,3
12,2,392,f42887_e_278,1,0.994359891,1,9,1,3
12,2,393,f42887_e_137,1,0.394516991,1,9,2,3
12,2,394,f42887_e_225,1,0.294862441,1,9,1,3
12,2,395,f42887_e_024,1,0.862137447,1,9,1,3
12,2,396,f42887_e_040,1,0.327866415,1,9,2,3
12,2,397,f42887_e_133,1,0.294668672,1,9,2,3
12,2,398,f42887_e_288,1,0.161336427,1,9,2,3
12,2,399,f42887_e_282,1,0.177667735,0,10,1,3
12,2,400,f42887_e_294,1,0.027912612,1,9,1,3
12,2,401,f42887_e_227,1,2.664632652,1,10,1,4
12,2,402,f42887_e_240,1,1.060608849,1,9,1,3
12,2,403,f42887_e_001,1,0.360810052,1,10,1,4
12,2,404,f42887_e_085,1,0.060321519,1,10,1,4
12,2,405,f42887_e_277,1,0.001377159,1,9,2,3
12,2,406,f42887_e_014,1,0.270971124,0,10,1,3
12,2,407,f42887_e_266,1,0.001350156,1,10,1,4
12,2,408,f42887_e_222,1,0.001338197,1,10,2,4
12,2,409,f42887_e_228,1,0.130317698,1,9,2,3
12,2,410,f42887_e_149,1,0.460205716,0,10,2,3
12,2,411,f42887_e_138,1,0.001380073,0,10,2,3
12,2,412,f42887_e_249,1,0.001387332,1,9,2,3
12,2,413,f42887_e_071,1,0.001337434,1,9,1,3
12,2,414,f42887_e_046,1,0.00140593,1,9,2,3
12,2,415,f42887_e_087,1,0.001412982,0,10,1,3
12,2,416,f42887_e_092,1,0.169632214,0,10,1,3
12,2,417,f42887_e_005,1,0.39258261,0,9,2,4
12,2,418,f42887_e_150,1,0.39272291,1,10,1,4
12,2,419,f42887_e_253,1,0.25966378,1,10,1,4
12,2,420,f42887_e_129,1,0.001355152,1,10,1,4
12,2,421,f42887_e_173,1,0.001266051,0,9,2,4
12,2,422,f42887_e_064,1,0.159573613,0,9,2,4
12,2,423,f42887_e_008,1,0.126163116,1,10,1,4
12,2,424,f42887_e_179,1,0.042751164,1,10,1,4
12,2,425,f42887_e_060,1,0.00135396,1,9,1,3
12,2,426,f42887_e_261,1,0.13270726,0,10,2,3
12,2,427,f42887_e_298,1,0.175866534,1,9,2,3
12,2,428,f42887_e_166,1,0.00137164,1,10,1,4
12,2,429,f42887_e_180,1,0.165728253,0,10,2,3
12,2,430,f42887_e_239,1,0.675395957,1,9,1,3
12,2,431,f42887_e_156,1,0.491829309,1,9,2,3
12,2,432,f42887_e_255,1,0.059344658,1,9,2,3
12,2,433,f42887_e_245,1,0.001320818,1,9,2,3
12,2,434,f42887_e_061,1,0.735188044,0,10,1,3
12,2,435,f42887_e_049,1,1.757681289,1,9,1,3
12,2,436,f42887_e_231,1,0.625272331,1,9,1,3
12,2,437,f42887_e_163,1,0.060558051,1,9,2,3
12,2,438,f42887_e_122,1,0.491746904,1,10,1,4
12,2,439,f42887_e_199,1,0.258267132,0,10,1,3
12,2,440,f42887_e_220,1,0.358290487,1,9,1,3
12,2,441,f42887_e_244,1,0.257989897,0,10,1,3
12,2,442,f42887_e_094,1,0.495529057,1,9,2,3
12,2,443,f42887_e_171,1,0.141482382,0,9,2,4
12,2,444,f42887_e_048,1,0.324589856,0,10,2,3
12,2,445,f42887_e_074,1,0.407667524,1,9,1,3
12,2,446,f42887_e_203,1,0.290598464,0,9,1,4
12,2,447,f42887_e_267,1,0.257696252,0,10,2,3
12,2,448,f42887_e_183,1,0.241372602,1,10,1,4
12,2,449,f42887_e_210,1,0.001337833,0,10,2,3
12,2,450,f42887_e_237,1,0.267743207,1,9,2,3
12,2,451,f42887_e_247,1,0.173643384,0,10,1,3
12,2,452,f42887_e_281,1,0.273781701,1,9,1,3
12,2,453,f42887_e_271,1,0.223974456,0,10,1,3
12,2,454,f42887_e_217,1,0.207483157,0,10,1,3
12,2,455,f42887_e_096,1,0.30742722,0,9,2,4
12,2,456,f42887_e_103,1,0.273858204,1,9,1,3
12,2,457,f42887_e_013,1,0.157218878,0,10,1,3
12,2,458,f42887_e_119,1,0.373543784,1,9,2,3
12,2,459,f42887_e_091,1,0.306927836,0,10,1,3
12,2,460,f42887_e_159,1,0.273376054,0,10,1,3
12,2,461,f42887_e_006,1,0.639679465,1,9,1,3
12,2,462,f42887_e_161,1,0.273311791,0,10,2,3
12,2,463,f42887_e_167,1,0.20623941,1,9,2,3
12,2,464,f42887_e_273,1,0.173073817,1,9,1,3
12,2,465,f42887_e_157,1,0.039775696,0,10,2,3
12,2,466,f42887_e_143,1,0.001339994,0,10,1,3
12,2,467,f42887_e_158,1,0.001325231,0,9,2,4
12,2,468,f42887_e_057,1,0.001430144,1,10,2,4
12,2,469,f42887_e_207,1,0.00140755,1,9,2,3
12,2,470,f42887_e_016,1,0.039619543,0,10,1,3
12,2,471,f42887_e_293,1,0.089523412,0,10,1,3
12,2,472,f42887_e_047,1,0.00137031,0,10,2,3
12,2,473,f42887_e_011,1,0.365492822,0,10,2,3
12,2,474,f42887_e_152,1,0.139293792,0,10,1,3
