Subject,Block,Trial,Stimulus,Group,RT,Acc,Location,Eye,Response
1,1,1,f42887_e_176,1,1.440065462,1,9,1,3
1,1,2,f42887_e_247,1,0.737945307,0,9,2,4
1,1,3,f42887_e_090,1,1.306307096,1,9,2,3
1,1,4,f42887_e_194,1,0.893334739,1,9,2,3
1,1,5,f42887_e_281,1,1.168039952,1,9,1,3
1,1,6,f42887_e_197,1,1.072229101,1,9,2,3
1,1,7,f42887_e_296,1,1.017390382,1,9,2,3
1,1,8,f42887_e_035,1,1.934630637,1,10,2,4
1,1,9,f42887_e_068,1,1.108950285,1,10,1,4
1,1,10,f42887_e_179,1,1.325529355,1,10,2,4
1,1,11,f42887_e_152,1,1.48688809,1,10,2,4
1,1,12,f42887_e_162,1,1.13885745,1,9,1,3
1,1,13,f42887_e_147,1,1.505125054,1,9,1,3
1,1,14,f42887_e_189,1,1.689531839,1,10,2,4
1,1,15,f42887_e_099,1,1.31697241,1,10,1,4
1,1,16,f42887_e_235,1,1.053921226,1,10,1,4
1,1,17,f42887_e_012,1,0.882779525,1,10,1,4
1,1,18,f42887_e_267,1,1.202219214,1,10,1,4
1,1,19,f42887_e_070,1,0.573692269,1,10,2,4
1,1,20,f42887_e_077,1,1.1226172,1,9,1,3
1,1,21,f42887_e_153,1,1.069333866,1,9,1,3
1,1,22,f42887_e_116,1,0.758361861,1,10,2,4
1,1,23,f42887_e_102,1,1.439618223,1,10,2,4
1,1,24,f42887_e_080,1,1.138055344,1,9,1,3
1,1,25,f42887_e_241,1,1.519354284,1,10,2,4
1,1,26,f42887_e_289,1,1.484403706,1,9,1,3
1,1,27,f42887_e_117,1,1.384162763,1,9,1,3
1,1,28,f42887_e_031,1,0.741010978,1,9,1,3
1,1,29,f42887_e_098,1,1.253929747,1,9,1,3
1,1,30,f42887_e_006,1,1.767112257,1,9,2,3
1,1,31,f42887_e_195,1,1.071018943,1,9,2,3
1,1,32,f42887_e_204,1,1.502188454,1,9,2,3
1,1,33,f42887_e_291,1,1.357878296,1,10,1,4
1,1,34,f42887_e_251,1,1.255235698,1,10,1,4
1,1,35,f42887_e_191,1,1.182949992,1,10,1,4
1,1,36,f42887_e_231,1,1.336857129,1,10,2,4
1,1,37,f42887_e_229,1,1.252656143,1,10,1,4
1,1,38,f42887_e_124,1,1.415711463,1,10,2,4
1,1,39,f42887_e_205,1,1.404263326,1,9,2,3
1,1,40,f42887_e_059,1,1.122421261,1,10,1,4
1,1,41,f42887_e_248,1,1.672343616,1,10,2,4
1,1,42,f42887_e_042,1,0.816055383,1,9,2,3
1,1,43,f42887_e_016,1,1.415547869,1,9,2,3
1,1,44,f42887_e_082,1,1.866668657,1,10,2,4
1,1,45,f42887_e_242,1,1.066543754,1,9,1,3
1,1,46,f42887_e_010,1,1.222037687,1,10,1,4
1,1,47,f42887_e_001,1,1.117830063,1,10,1,4
1,1,48,f42887_e_043,1,1.200731009,1,9,1,3
1,1,49,f42887_e_003,1,1.217727957,1,10,1,4
1,1,50,f42887_e_048,1,1.141094579,1,9,1,3
1,1,51,f42887_e_168,1,1.138867092,1,9,2,3
1,1,52,f42887_e_095,1,1.354795519,1,9,1,3
1,1,53,f42887_e_111,1,1.209645621,1,9,1,3
1,1,54,f42887_e_175,1,1.384926304,1,10,2,4
1,1,55,f42887_e_036,1,1.368349536,1,10,1,4
1,1,56,f42887_e_112,1,1.28830837,1,10,1,4
1,1,57,f42887_e_002,1,1.386655856,1,9,2,3
1,1,58,f42887_e_084,1,1.542208571,1,9,2,3
1,1,59,f42887_e_284,1,1.22160351,1,10,2,4
1,1,60,f42887_e_172,1,1.203148214,1,10,2,4
1,1,61,f42887_e_033,1,1.323271389,1,10,1,4
1,1,62,f42887_e_100,1,1.202342997,1,9,2,3
1,1,63,f42887_e_038,1,1.421073666,1,9,2,3
1,1,64,f42887_e_257,1,1.005668863,1,9,1,3
1,1,65,f42887_e_202,1,1.540988771,1,10,2,4
1,1,66,f42887_e_129,1,1.306968936,1,10,1,4
1,1,67,f42887_e_223,1,1.349238932,0,10,1,3
1,1,68,f42887_e_160,1,1.598024497,1,10,2,4
1,1,69,f42887_e_142,1,1.072387407,1,9,2,3
1,1,70,f42887_e_169,1,1.166294538,1,9,2,3
1,1,71,f42887_e_136,1,1.281447698,1,9,1,3
1,1,72,f42887_e_213,1,1.303416527,1,10,1,4
1,1,73,f42887_e_034,1,1.507377111,1,9,1,3
1,1,74,f42887_e_135,1,1.017119799,1,10,1,4
1,1,75,f42887_e_110,1,1.589670023,1,9,1,3
1,1,76,f42887_e_250,1,3.18100895,1,10,2,4
1,1,77,f42887_e_097,1,1.522658814,1,10,1,4
1,1,78,f42887_e_282,1,1.287162281,1,9,1,3
1,1,79,f42887_e_119,1,1.685055717,1,10,2,4
1,1,80,f42887_e_062,1,1.615132478,1,10,2,4
1,1,81,f42887_e_208,1,1.235653285,1,9,2,3
1,1,82,f42887_e_219,1,2.767782183,1,10,2,4
1,1,83,f42887_e_232,1,1.731547736,1,10,1,4
1,1,84,f42887_e_259,1,1.100499085,1,9,1,3
1,1,85,f42887_e_268,1,1.421216111,1,10,2,4
1,1,86,f42887_e_180,1,1.267702719,1,9,1,3
1,1,87,f42887_e_040,1,4.00247692,1,10,2,4
1,1,88,f42887_e_037,1,1.221062656,1,10,1,4
1,1,89,f42887_e_137,1,1.687326434,1,9,1,3
1,1,90,f42887_e_163,1,0.94820798,0,10,1,3
1,1,91,f42887_e_139,1,1.847270054,1,10,2,4
1,1,92,f42887_e_128,1,1.556658621,1,10,1,4
1,1,93,f42887_e_085,1,1.338032142,1,10,1,4
1,1,94,f42887_e_093,1,1.723534756,1,9,2,3
1,1,95,f42887_e_039,1,3.505822971,1,10,2,4
1,1,96,f42887_e_200,1,1.299740645,1,9,1,3
1,1,97,f42887_e_272,1,1.36630337,1,10,2,4
1,1,98,f42887_e_165,1,1.805522562,1,10,2,4
1,1,99,f42887_e_253,1,1.372609814,1,10,2,4
1,1,100,f42887_e_030,1,1.302176822,1,10,1,4
1,1,101,f42887_e_297,1,1.205672098,1,9,1,3
1,1,102,f42887_e_262,1,1.27113632,1,9,1,3
1,1,103,f42887_e_211,1,1.506216716,1,10,1,4
1,1,104,f42887_e_020,1,1.457065832,1,9,2,3
1,1,105,f42887_e_125,1,1.331111134,1,10,2,4
1,1,106,f42887_e_089,1,1.788403696,1,9,2,3
1,1,107,f42887_e_184,1,1.302738204,1,9,1,3
1,1,108,f42887_e_246,1,1.31665984,1,9,2,3
1,1,109,f42887_e_243,1,1.452195032,1,9,2,3
1,1,110,f42887_e_173,1,1.413866213,1,10,1,4
1,1,111,f42887_e_156,1,2.203860749,1,10,2,4
1,1,112,f42887_e_239,1,2.821212316,1,9,2,3
1,1,113,f42887_e_222,1,1.346986564,1,10,2,4
1,1,114,f42887_e_056,1,1.386306275,1,9,2,3
1,1,115,f42887_e_108,1,1.197976041,1,10,1,4
1,1,116,f42887_e_224,1,1.853007962,1,9,2,3
1,1,117,f42887_e_238,1,1.139082314,1,9,2,3
1,1,118,f42887_e_288,1,1.332252869,1,9,2,3
1,1,119,f42887_e_133,1,1.148388182,1,9,2,3
1,1,120,f42887_e_015,1,1.089315622,1,10,2,4
1,1,121,f42887_e_206,1,1.386924261,1,9,1,3
1,1,122,f42887_e_182,1,1.200631484,1,10,1,4
1,1,123,f42887_e_234,1,1.816681766,1,10,2,4
1,1,124,f42887_e_000,1,1.103195271,1,9,1,3
1,1,125,f42887_e_245,1,1.122150678,1,9,2,3
1,1,126,f42887_e_273,1,1.068318403,1,9,1,3
1,1,127,f42887_e_096,1,1.431060967,1,10,1,4
1,1,128,f42887_e_073,1,1.735030167,1,9,1,3
1,1,129,f42887_e_060,1,1.29744629,1,9,2,3
1,1,130,f42887_e_166,1,1.450892192,1,9,1,3
1,1,131,f42887_e_198,1,1.202017987,1,10,1,4
1,1,132,f42887_e_019,1,1.484333416,1,9,2,3
1,1,133,f42887_e_276,1,1.584370334,1,10,2,4
1,1,134,f42887_e_183,1,1.235627781,1,10,2,4
1,1,135,f42887_e_299,1,0.866793996,1,9,2,3
1,1,136,f42887_e_140,1,1.282748984,1,9,2,3
1,1,137,f42887_e_071,1,1.096152345,1,9,2,3
1,1,138,f42887_e_236,1,1.047699378,1,9,1,3
1,1,139,f42887_e_127,1,1.48185152,1,10,2,4
1,1,140,f42887_e_215,1,1.28669607,1,10,2,4
1,1,141,f42887_e_287,1,1.210598569,1,10,2,4
1,1,142,f42887_e_022,1,1.167784298,1,9,2,3
1,1,143,f42887_e_126,1,1.23055731,1,10,2,4
1,1,144,f42887_e_264,1,1.530160798,1,10,1,4
1,1,145,f42887_e_103,1,1.954209007,1,10,1,4
1,1,146,f42887_e_074,1,1.112715739,1,9,2,3
1,1,147,f42887_e_286,1,1.236214355,1,9,1,3
1,1,148,f42887_e_207,1,1.882052995,1,9,2,3
1,1,149,f42887_e_027,1,1.270497185,1,10,1,4
1,1,150,f42887_e_083,1,1.557333522,1,10,1,4
1,1,151,f42887_e_237,1,1.463353926,1,10,2,4
1,1,152,f42887_e_058,1,1.080280958,1,9,1,3
1,1,153,f42887_e_050,1,1.147939077,1,10,2,4
1,1,154,f42887_e_051,1,3.804692775,1,9,2,3
1,1,155,f42887_e_266,1,1.343890413,1,10,1,4
1,1,156,f42887_e_212,1,1.739439732,1,9,1,3
1,1,157,f42887_e_209,1,1.072684737,1,9,2,3
1,1,158,f42887_e_217,1,1.444847623,1,9,2,3
1,1,159,f42887_e_157,1,3.271891152,1,9,2,3
1,1,160,f42887_e_274,1,1.555714691,1,10,1,4
1,1,161,f42887_e_187,1,1.729586789,1,9,2,3
1,1,162,f42887_e_065,1,1.343008376,1,10,1,4
1,1,163,f42887_e_131,1,1.35594534,1,10,2,4
1,1,164,f42887_e_161,1,1.643860587,1,9,2,3
1,1,165,f42887_e_283,1,1.94461825,1,10,2,4
1,1,166,f42887_e_052,1,1.15850922,1,10,1,4
1,1,167,f42887_e_148,1,1.55777734,1,10,2,4
1,1,168,f42887_e_078,1,1.923300064,1,9,2,3
1,1,169,f42887_e_190,1,1.346400923,1,9,1,3
1,1,170,f42887_e_025,1,1.226429213,1,9,1,3
1,1,171,f42887_e_263,1,1.330773683,1,10,2,4
1,1,172,f42887_e_159,1,1.005248683,1,10,2,4
1,1,173,f42887_e_091,1,1.226915018,1,9,1,3
1,1,174,f42887_e_087,1,0.940555777,1,10,1,4
1,1,175,f42887_e_123,1,1.70489565,1,9,2,3
1,1,176,f42887_e_005,1,1.177235099,1,9,1,3
1,1,177,f42887_e_064,1,0.938668851,1,9,1,3
1,1,178,f42887_e_122,1,1.230368213,1,10,2,4
1,1,179,f42887_e_094,1,1.307520053,0,10,2,3
1,1,180,f42887_e_028,1,1.159455637,1,9,2,3
1,1,181,f42887_e_049,1,1.240982209,1,10,2,4
1,1,182,f42887_e_026,1,1.162024307,1,9,2,3
1,1,183,f42887_e_105,1,1.006349985,1,9,2,3
1,1,184,f42887_e_113,1,1.229196621,1,9,2,3
1,1,185,f42887_e_104,1,1.158737194,1,9,1,3
1,1,186,f42887_e_032,1,1.071964427,1,10,1,4
1,1,187,f42887_e_011,1,0.955608573,1,9,1,3
1,1,188,f42887_e_017,1,0.977901168,1,10,1,4
1,1,189,f42887_e_092,1,1.09439449,1,10,1,4
1,1,190,f42887_e_120,1,1.312894697,1,9,2,3
1,1,191,f42887_e_106,1,1.128493511,1,9,2,3
1,1,192,f42887_e_280,1,1.425609814,1,10,2,4
1,1,193,f42887_e_054,1,1.291405764,1,10,2,4
1,1,194,f42887_e_174,1,1.154784198,1,9,1,3
1,1,195,f42887_e_279,1,1.088710076,1,10,2,4
1,1,196,f42887_e_228,1,1.088001896,1,10,2,4
1,1,197,f42887_e_261,1,1.728062817,1,10,2,4
1,1,198,f42887_e_249,1,1.406590648,1,9,2,3
1,1,199,f42887_e_061,1,1.127792484,1,9,1,3
1,1,200,f42887_e_216,1,1.073749651,1,10,1,4
1,1,201,f42887_e_170,1,1.309916421,1,10,2,4
1,1,202,f42887_e_225,1,1.090432164,1,9,2,3
1,1,203,f42887_e_298,1,1.124571616,1,9,2,3
1,1,204,f42887_e_067,1,1.344366577,1,9,1,3
1,1,205,f42887_e_004,1,1.42643618,1,10,2,4
1,1,206,f42887_e_196,1,1.371615189,1,10,1,4
1,1,207,f42887_e_177,1,1.507072628,1,9,2,3
1,1,208,f42887_e_079,1,1.29118681,1,10,1,4
1,1,209,f42887_e_132,1,1.624599763,1,10,2,4
1,1,210,f42887_e_053,1,1.876175441,1,9,2,3
1,1,211,f42887_e_149,1,1.861502082,1,10,2,4
1,1,212,f42887_e_155,1,1.307171717,1,10,2,4
1,1,213,f42887_e_277,1,1.37069272,1,9,1,3
1,1,214,f42887_e_188,1,1.463078367,1,9,1,3
1,1,215,f42887_e_013,1,1.191713451,1,9,2,3
1,1,216,f42887_e_072,1,1.491983754,1,10,1,4
1,1,217,f42887_e_066,1,1.153816009,1,9,1,3
1,1,218,f42887_e_227,1,1.704507504,1,10,2,4
1,1,219,f42887_e_045,1,1.275466576,1,9,1,3
1,1,220,f42887_e_203,1,1.506455575,1,10,2,4
1,1,221,f42887_e_181,1,1.126049247,1,10,2,4
1,1,222,f42887_e_046,1,1.262251565,1,10,2,4
1,1,223,f42887_e_047,1,1.345141936,1,9,2,3
1,1,224,f42887_e_069,1,1.154764915,1,10,1,4
1,1,225,f42887_e_254,1,1.137981944,1,10,1,4
1,1,226,f42887_e_150,1,1.79620021,1,9,2,3
1,1,227,f42887_e_107,1,1.224606046,1,9,1,3
1,1,228,f42887_e_101,1,1.293621432,1,9,2,3
1,1,229,f42887_e_265,1,1.457768414,1,10,2,4
1,1,230,f42887_e_256,1,0.959910527,1,9,2,3
1,1,231,f42887_e_255,1,0.957662514,1,10,1,4
1,1,232,f42887_e_007,1,1.85434377,1,10,1,4
1,1,233,f42887_e_252,1,1.308818539,1,10,2,4
1,1,234,f42887_e_023,1,1.452487075,1,9,2,3
1,1,235,f42887_e_178,1,1.577734837,1,10,2,4
1,1,236,f42887_e_130,1,0.936502323,1,9,1,3
1,1,237,f42887_e_014,1,1.045473758,1,9,2,3
1,1,238,f42887_e_295,1,1.09401443,1,9,1,3
1,1,239,f42887_e_041,1,0.920779602,1,10,1,4
1,1,240,f42887_e_109,1,1.508663468,1,10,2,4
1,1,241,f42887_e_278,1,1.035868693,1,10,2,4
1,1,242,f42887_e_008,1,1.310919443,1,10,1,4
1,1,243,f42887_e_145,1,1.321965438,1,10,1,4
1,1,244,f42887_e_134,1,2.220450268,1,10,2,4
1,1,245,f42887_e_141,1,1.521629978,1,9,2,3
1,1,246,f42887_e_240,1,3.488841573,1,10,2,4
1,1,247,f42887_e_154,1,1.207479093,1,10,1,4
1,1,248,f42887_e_076,1,1.559570029,1,10,2,4
1,1,249,f42887_e_114,1,1.536809046,1,10,2,4
1,1,250,f42887_e_115,1,1.19015589,1,10,2,4
1,1,251,f42887_e_192,1,1.187502313,1,10,2,4
1,1,252,f42887_e_244,1,1.142035398,0,9,1,4
1,1,253,f42887_e_167,1,2.708709622,1,10,2,4
1,1,254,f42887_e_018,1,1.170057192,1,9,2,3
1,1,255,f42887_e_193,1,1.170262773,1,9,1,3
1,1,256,f42887_e_029,1,2.293428292,1,9,2,3
1,1,257,f42887_e_057,1,1.419773936,1,9,1,3
1,1,258,f42887_e_275,1,4.442158591,0,9,2,4
1,1,259,f42887_e_044,1,1.644351679,1,9,2,3
1,1,260,f42887_e_201,1,1.387587345,1,10,2,4
1,1,261,f42887_e_293,1,1.992929705,1,10,1,4
1,1,262,f42887_e_086,1,1.352667246,1,9,1,3
1,1,263,f42887_e_121,1,1.192154781,1,10,2,4
1,1,264,f42887_e_221,1,1.689097974,1,9,1,3
1,1,265,f42887_e_151,1,1.669079518,1,9,2,3
1,1,266,f42887_e_271,1,1.657240436,1,9,1,3
1,1,267,f42887_e_158,1,1.457560345,1,9,2,3
1,1,268,f42887_e_164,1,1.453286694,1,9,2,3
1,1,269,f42887_e_220,1,1.155532188,1,10,2,4
1,1,270,f42887_e_118,1,1.239006333,1,9,1,3
1,1,271,f42887_e_233,1,1.152789661,1,9,1,3
1,1,272,f42887_e_088,1,1.139023843,1,10,1,4
1,1,273,f42887_e_186,1,1.060838191,1,9,1,3
1,1,274,f42887_e_269,1,1.294610148,1,10,2,4
1,1,275,f42887_e_075,1,0.968799947,1,9,2,3
1,1,276,f42887_e_199,1,1.324047681,1,9,1,3
1,1,277,f42887_e_138,1,1.236841671,1,9,2,3
1,1,278,f42887_e_214,1,1.788751099,1,9,2,3
1,1,279,f42887_e_144,1,1.270296891,1,9,1,3
1,1,280,f42887_e_009,1,1.127121314,1,10,2,4
1,1,281,f42887_e_294,1,1.140232757,1,9,1,3
1,1,282,f42887_e_218,1,0.9361854,1,10,1,4
1,1,283,f42887_e_055,1,1.39360921,1,10,2,4
1,1,284,f42887_e_024,1,1.418841203,1,9,1,3
1,1,285,f42887_e_260,1,1.577302527,1,10,2,4
1,1,286,f42887_e_226,1,1.557522619,1,9,2,3
1,1,287,f42887_e_270,1,0.942116448,1,10,1,4
1,1,288,f42887_e_171,1,2.788589682,1,10,2,4
1,1,289,f42887_e_021,1,1.322188125,1,9,1,3
1,1,290,f42887_e_290,1,1.004476433,1,9,2,3
1,1,291,f42887_e_230,1,1.509438205,1,10,2,4
1,1,292,f42887_e_081,1,1.486080385,1,9,2,3
1,1,293,f42887_e_143,1,1.537661537,1,9,1,3
1,1,294,f42887_e_146,1,1.476892392,1,10,2,4
1,1,295,f42887_e_285,1,1.340527101,1,9,2,3
1,1,296,f42887_e_210,1,0.925934669,1,10,1,4
1,1,297,f42887_e_185,1,1.45553253,1,10,1,4
1,1,298,f42887_e_258,1,1.20649722,1,10,1,4
1,1,299,f42887_e_063,1,1.404664224,1,9,2,3
1,1,300,f42887_e_292,1,1.024627692,1,10,1,4
1,2,301,f42887_e_292,1,1.688658821,1,10,2,4
1,2,302,f42887_e_075,1,1.287637822,1,10,2,4
1,2,303,f42887_e_213,1,1.087376757,1,9,2,3
1,2,304,f42887_e_240,1,4.867811636,1,10,1,4
1,2,305,f42887_e_115,1,2.00395735,1,10,2,4
1,2,306,f42887_e_222,1,1.154302125,1,9,2,3
1,2,307,f42887_e_209,1,1.070509812,1,10,2,4
1,2,308,f42887_e_069,1,1.070554909,1,9,1,3
1,2,309,f42887_e_194,1,1.420762962,1,10,1,4
1,2,310,f42887_e_159,1,1.320616568,1,9,1,3
1,2,311,f42887_e_078,1,1.520212373,0,9,1,4
1,2,312,f42887_e_114,1,1.120263131,1,9,1,3
1,2,313,f42887_e_005,1,1.253619977,1,10,2,4
1,2,314,f42887_e_191,1,1.53694807,1,10,2,4
1,2,315,f42887_e_241,1,1.786652683,1,9,2,3
1,2,316,f42887_e_208,1,1.136912676,1,10,1,4
1,2,317,f42887_e_113,1,1.087381111,1,9,1,3
1,2,318,f42887_e_083,1,1.170677667,1,9,1,3
1,2,319,f42887_e_267,1,1.386411398,1,9,2,3
1,2,320,f42887_e_211,1,1.736375305,1,9,2,3
1,2,321,f42887_e_238,1,1.169947093,1,9,2,3
1,2,322,f42887_e_142,1,1.072571217,1,10,2,4
1,2,323,f42887_e_298,1,1.253634284,1,10,2,4
1,2,324,f42887_e_190,1,0.920198004,1,9,2,3
1,2,325,f42887_e_066,1,1.336262469,1,10,2,4
1,2,326,f42887_e_149,1,1.32028005,1,9,2,3
1,2,327,f42887_e_129,1,1.136394526,1,10,1,4
1,2,328,f42887_e_178,1,1.203055843,1,10,1,4
1,2,329,f42887_e_166,1,1.603075064,1,9,2,3
1,2,330,f42887_e_237,1,1.552780268,1,10,1,4
1,2,331,f42887_e_247,1,1.619807028,1,9,2,3
1,2,332,f42887_e_216,1,3.767902856,1,9,1,3
1,2,333,f42887_e_104,1,1.269985566,1,9,1,3
1,2,334,f42887_e_225,1,1.553411939,1,9,2,3
1,2,335,f42887_e_201,1,1.486294986,1,10,1,4
1,2,336,f42887_e_297,1,1.619081431,1,9,2,3
1,2,337,f42887_e_250,1,1.302703059,1,9,1,3
1,2,338,f42887_e_279,1,1.418902162,1,10,2,4
1,2,339,f42887_e_107,1,1.419248321,1,10,1,4
1,2,340,f42887_e_040,1,1.418907138,1,10,2,4
1,2,341,f42887_e_049,1,1.135438156,1,9,2,3
1,2,342,f42887_e_130,1,1.352380801,1,10,1,4
1,2,343,f42887_e_239,1,1.518950898,1,9,1,3
1,2,344,f42887_e_299,1,1.186001046,1,9,1,3
1,2,345,f42887_e_131,1,1.186443308,1,10,2,4
1,2,346,f42887_e_051,1,1.201578524,1,10,1,4
1,2,347,f42887_e_058,1,0.835387118,1,9,2,3
1,2,348,f42887_e_156,1,1.168994145,1,10,1,4
1,2,349,f42887_e_233,1,1.301969687,1,9,1,3
1,2,350,f42887_e_231,1,1.018952609,1,10,1,4
1,2,351,f42887_e_256,1,1.10557982,1,10,1,4
1,2,352,f42887_e_124,1,1.90113312,1,10,2,4
1,2,353,f42887_e_077,1,0.984893709,1,10,1,4
1,2,354,f42887_e_272,1,1.318568848,1,10,2,4
1,2,355,f42887_e_027,1,1.169224295,1,9,1,3
1,2,356,f42887_e_259,1,1.251779392,1,9,2,3
1,2,357,f42887_e_229,1,1.03546002,1,9,2,3
1,2,358,f42887_e_064,1,1.102487091,1,9,2,3
1,2,359,f42887_e_084,1,1.185294731,1,9,1,3
1,2,360,f42887_e_268,1,1.019030673,1,9,1,3
1,2,361,f42887_e_016,1,1.00203528,1,10,1,4
1,2,362,f42887_e_280,1,1.351935428,1,10,2,4
1,2,363,f42887_e_006,1,1.26789617,1,10,1,4
1,2,364,f42887_e_047,1,1.384568948,1,9,1,3
1,2,365,f42887_e_277,1,1.867874772,1,9,2,3
1,2,366,f42887_e_185,1,1.468522988,1,10,1,4
1,2,367,f42887_e_135,1,1.301821333,1,9,1,3
1,2,368,f42887_e_287,1,1.751672559,1,10,2,4
1,2,369,f42887_e_242,1,1.251748913,1,10,1,4
1,2,370,f42887_e_203,1,1.101432751,1,9,1,3
1,2,371,f42887_e_175,1,3.450936045,1,10,2,4
1,2,372,f42887_e_007,1,3.134538391,0,10,2,3
1,2,373,f42887_e_055,1,1.267538192,1,10,1,4
1,2,374,f42887_e_057,1,1.484321287,1,9,2,3
1,2,375,f42887_e_218,1,2.118254598,1,10,1,4
1,2,376,f42887_e_235,1,1.651133975,1,9,2,3
1,2,377,f42887_e_070,1,1.035730292,1,10,1,4
1,2,378,f42887_e_038,1,1.468146972,1,9,1,3
1,2,379,f42887_e_215,1,1.834245695,0,9,2,4
1,2,380,f42887_e_251,1,1.018348307,1,9,2,3
1,2,381,f42887_e_243,1,1.601372881,1,9,1,3
1,2,382,f42887_e_144,1,1.501234261,1,10,2,4
1,2,383,f42887_e_281,1,1.284225059,1,10,1,4
1,2,384,f42887_e_236,1,1.551390966,1,9,1,3
1,2,385,f42887_e_073,1,1.50109275,1,10,2,4
1,2,386,f42887_e_090,1,1.21808749,1,9,1,3
1,2,387,f42887_e_278,1,1.184608322,1,10,1,4
1,2,388,f42887_e_089,1,1.383609157,1,10,1,4
1,2,389,f42887_e_062,1,1.584114369,1,10,2,4
1,2,390,f42887_e_048,1,1.201083388,1,9,1,3
1,2,391,f42887_e_031,1,1.534478925,1,9,1,3
1,2,392,f42887_e_103,1,1.15074163,1,9,2,3
1,2,393,f42887_e_087,1,1.400660222,1,9,2,3
1,2,394,f42887_e_074,1,1.434284634,1,9,2,3
1,2,395,f42887_e_120,1,1.334287215,1,10,1,4
1,2,396,f42887_e_052,1,1.134405898,1,9,1,3
1,2,397,f42887_e_253,1,1.067549575,1,9,2,3
1,2,398,f42887_e_202,1,1.334049289,1,9,2,3
1,2,399,f42887_e_223,1,1.400982744,1,9,2,3
1,2,400,f42887_e_217,1,1.25123916,1,10,2,4
1,2,401,f42887_e_059,1,1.374402813,1,10,1,4
1,2,402,f42887_e_139,1,1.333978689,1,10,2,4
1,2,403,f42887_e_296,1,1.601078039,1,10,2,4
1,2,404,f42887_e_271,1,1.699998414,1,9,1,3
1,2,405,f42887_e_023,1,1.449350182,1,10,1,4
1,2,406,f42887_e_097,1,1.300001897,1,9,2,3
1,2,407,f42887_e_043,1,1.098971692,1,10,1,4
1,2,408,f42887_e_275,1,1.183431132,1,10,1,4
1,2,409,f42887_e_249,1,1.022769691,1,9,1,3
1,2,410,f42887_e_067,1,1.149979644,1,9,2,3
1,2,411,f42887_e_158,1,1.033201121,1,9,1,3
1,2,412,f42887_e_168,1,1.116488346,1,10,1,4
1,2,413,f42887_e_140,1,0.949597905,1,9,1,3
1,2,414,f42887_e_172,1,1.099206508,1,9,1,3
1,2,415,f42887_e_021,1,1.199827822,1,10,1,4
1,2,416,f42887_e_293,1,1.550602855,1,10,2,4
1,2,417,f42887_e_186,1,1.716507692,1,10,2,4
1,2,418,f42887_e_151,1,1.21675697,1,10,2,4
1,2,419,f42887_e_094,1,1.882798808,1,9,1,3
1,2,420,f42887_e_126,1,1.316438397,1,10,1,4
1,2,421,f42887_e_105,1,1.150474157,1,9,1,3
1,2,422,f42887_e_179,1,1.349828615,1,10,2,4
1,2,423,f42887_e_153,1,1.183490225,1,10,2,4
1,2,424,f42887_e_132,1,0.932858165,1,10,1,4
1,2,425,f42887_e_034,1,1.300364229,1,9,2,3
1,2,426,f42887_e_141,1,0.850198567,1,10,1,4
1,2,427,f42887_e_150,1,0.983727404,1,10,1,4
1,2,428,f42887_e_221,1,0.96679919,1,10,1,4
1,2,429,f42887_e_050,1,1.44995977,1,10,2,4
1,2,430,f42887_e_076,1,1.332800254,1,9,1,3
1,2,431,f42887_e_024,1,0.916188404,1,10,1,4
1,2,432,f42887_e_025,1,1.065784567,1,9,1,3
1,2,433,f42887_e_290,1,1.468471982,1,10,2,4
1,2,434,f42887_e_054,1,1.466234854,1,10,2,4
1,2,435,f42887_e_169,1,1.905306314,1,10,2,4
1,2,436,f42887_e_002,1,1.566333352,1,10,2,4
1,2,437,f42887_e_204,1,0.933201836,1,9,1,3
1,2,438,f42887_e_122,1,1.032424207,1,10,1,4
1,2,439,f42887_e_234,1,1.332186,1,10,2,4
1,2,440,f42887_e_072,1,1.199337352,1,9,2,3
1,2,441,f42887_e_261,1,1.199617265,1,10,1,4
1,2,442,f42887_e_266,1,1.199735762,1,10,1,4
1,2,443,f42887_e_086,1,1.715494095,1,10,2,4
1,2,444,f42887_e_180,1,0.949817792,1,9,2,3
1,2,445,f42887_e_039,1,1.149514988,1,9,1,3
1,2,446,f42887_e_205,1,1.032228578,1,9,2,3
1,2,447,f42887_e_161,1,1.164969304,1,9,2,3
1,2,448,f42887_e_081,1,1.349363338,1,9,2,3
1,2,449,f42887_e_224,1,1.232477514,1,10,1,4
1,2,450,f42887_e_013,1,1.181474228,1,10,2,4
1,2,451,f42887_e_028,1,1.015693797,1,9,1,3
1,2,452,f42887_e_170,1,1.165694279,1,10,2,4
1,2,453,f42887_e_284,1,1.415462029,1,9,1,3
1,2,454,f42887_e_210,1,0.433078519,1,10,1,4
1,2,455,f42887_e_036,1,1.365879769,1,10,2,4
1,2,456,f42887_e_181,1,1.665440336,1,10,1,4
1,2,457,f42887_e_289,1,1.032171663,1,9,2,3
1,2,458,f42887_e_183,1,2.31572493,1,10,2,4
1,2,459,f42887_e_035,1,1.00885583,1,9,1,3
1,2,460,f42887_e_198,1,0.965203374,1,9,2,3
1,2,461,f42887_e_228,1,1.297996475,1,10,2,4
1,2,462,f42887_e_020,1,0.831436611,1,9,2,3
1,2,463,f42887_e_095,1,1.2485691,1,10,2,4
1,2,464,f42887_e_033,1,1.208525968,1,9,1,3
1,2,465,f42887_e_154,1,1.315119074,1,10,1,4
1,2,466,f42887_e_080,1,1.232229636,1,10,2,4
1,2,467,f42887_e_061,1,1.114961576,1,9,2,3
1,2,468,f42887_e_262,1,1.558065962,1,10,2,4
1,2,469,f42887_e_214,1,1.165449822,1,9,1,3
1,2,470,f42887_e_053,1,1.275388512,1,9,1,3
1,2,471,f42887_e_163,1,1.191886686,1,9,1,3
1,2,472,f42887_e_171,1,1.290995225,1,10,1,4
1,2,473,f42887_e_118,1,1.141618327,1,10,1,4
1,2,474,f42887_e_184,1,1.148788147,1,9,2,3
1,2,475,f42887_e_008,1,1.156644065,1,9,1,3
1,2,476,f42887_e_012,1,1.325422988,1,10,2,4
1,2,477,f42887_e_252,1,1.091752732,1,10,2,4
1,2,478,f42887_e_273,1,1.508381377,1,10,1,4
1,2,479,f42887_e_082,1,1.291551941,1,9,1,3
1,2,480,f42887_e_032,1,1.041025316,1,9,2,3
1,2,481,f42887_e_127,1,1.241458683,1,9,1,3
1,2,482,f42887_e_257,1,1.141988435,1,10,1,4
1,2,483,f42887_e_037,1,1.208280266,1,9,1,3
1,2,484,f42887_e_092,1,1.174100693,1,10,1,4
1,2,485,f42887_e_065,1,1.074753917,1,9,2,3
1,2,486,f42887_e_137,1,1.141838837,1,9,1,3
1,2,487,f42887_e_079,1,1.02395559,1,9,2,3
1,2,488,f42887_e_015,1,1.158458524,1,9,1,3
1,2,489,f42887_e_108,1,1.325219273,1,10,1,4
1,2,490,f42887_e_010,1,1.407723053,1,10,1,4
1,2,491,f42887_e_227,1,1.291833098,1,10,1,4
1,2,492,f42887_e_138,1,0.975054762,1,9,1,3
1,2,493,f42887_e_212,1,1.09127999,1,9,1,3
1,2,494,f42887_e_265,1,1.121879474,1,9,1,3
1,2,495,f42887_e_269,1,1.229583212,1,9,2,3
1,2,496,f42887_e_294,1,0.824803602,1,9,1,3
1,2,497,f42887_e_119,1,1.406516005,1,10,2,4
1,2,498,f42887_e_093,1,1.291089151,1,10,1,4
1,2,499,f42887_e_263,1,1.45769968,1,9,2,3
1,2,500,f42887_e_019,1,1.224481329,1,9,2,3
1,2,501,f42887_e_254,1,1.091179843,1,9,2,3
1,2,502,f42887_e_177,1,1.640278943,1,10,2,4
1,2,503,f42887_e_121,1,1.240683324,1,10,2,4
1,2,504,f42887_e_146,1,1.07442673,1,9,2,3
1,2,505,f42887_e_099,1,1.322853696,1,10,2,4
1,2,506,f42887_e_117,1,1.006920386,1,9,2,3
1,2,507,f42887_e_173,1,1.424289557,1,10,1,4
1,2,508,f42887_e_068,1,1.274098423,1,10,2,4
1,2,509,f42887_e_100,1,1.190368313,1,10,1,4
1,2,510,f42887_e_196,1,1.090597935,1,9,2,3
1,2,511,f42887_e_226,1,1.274194527,1,10,2,4
1,2,512,f42887_e_030,1,1.357450962,0,9,2,4
1,2,513,f42887_e_029,1,1.490314227,1,10,1,4
1,2,514,f42887_e_011,1,1.239048631,1,9,2,3
1,2,515,f42887_e_207,1,1.590328752,1,9,2,3
1,2,516,f42887_e_245,1,1.290609256,1,9,1,3
1,2,517,f42887_e_044,1,0.973690963,0,10,2,3
1,2,518,f42887_e_102,1,1.074080571,1,9,1,3
1,2,519,f42887_e_101,1,1.290356401,1,9,2,3
1,2,520,f42887_e_134,1,1.157314613,1,10,2,4
1,2,521,f42887_e_085,1,1.457207655,1,9,1,3
1,2,522,f42887_e_176,1,1.290569135,1,9,2,3
1,2,523,f42887_e_026,1,1.207108674,1,10,2,4
1,2,524,f42887_e_286,1,1.256887807,1,10,1,4
1,2,525,f42887_e_288,1,1.190294291,1,10,1,4
1,2,526,f42887_e_112,1,1.023982959,1,10,1,4
1,2,527,f42887_e_017,1,1.173622975,1,10,1,4
1,2,528,f42887_e_111,1,1.006993786,1,9,1,3
1,2,529,f42887_e_110,1,1.372399879,1,10,2,4
1,2,530,f42887_e_285,1,1.955795182,1,9,1,3
1,2,531,f42887_e_014,1,1.689723735,1,9,2,3
1,2,532,f42887_e_063,1,1.372759412,1,9,2,3
1,2,533,f42887_e_219,1,1.556969635,1,10,2,4
1,2,534,f42887_e_162,1,1.173531537,1,10,1,4
1,2,535,f42887_e_164,1,1.173266552,1,10,2,4
1,2,536,f42887_e_160,1,0.917942526,1,9,2,3
1,2,537,f42887_e_264,1,1.205837247,1,10,1,4
1,2,538,f42887_e_248,1,0.923503468,1,9,1,3
1,2,539,f42887_e_291,1,1.273139876,1,9,1,3
1,2,540,f42887_e_109,1,1.255862081,1,9,2,3
1,2,541,f42887_e_260,1,1.039633836,1,9,2,3
1,2,542,f42887_e_145,1,1.239835187,1,9,2,3
1,2,543,f42887_e_276,1,0.973082307,1,9,2,3
1,2,544,f42887_e_003,1,1.722882247,1,10,2,4
1,2,545,f42887_e_232,1,1.08996191,1,10,2,4
1,2,546,f42887_e_152,1,1.056032082,1,9,2,3
1,2,547,f42887_e_000,1,1.072810076,1,9,1,3
1,2,548,f42887_e_096,1,1.105911983,1,9,2,3
1,2,549,f42887_e_147,1,1.090016027,1,9,2,3
1,2,550,f42887_e_088,1,1.221892754,1,10,2,4
1,2,551,f42887_e_244,1,0.922683011,1,9,2,3
1,2,552,f42887_e_255,1,1.056087131,1,10,1,4
1,2,553,f42887_e_046,1,1.322660867,1,10,1,4
1,2,554,f42887_e_270,1,1.03970537,1,10,2,4
1,2,555,f42887_e_071,1,1.122413486,1,10,1,4
1,2,556,f42887_e_206,1,1.25584933,1,10,1,4
1,2,557,f42887_e_187,1,1.022081416,1,9,1,3
1,2,558,f42887_e_246,1,1.039111332,1,9,2,3
1,2,559,f42887_e_106,1,1.072470137,1,10,2,4
1,2,560,f42887_e_155,1,1.489290367,1,10,1,4
1,2,561,f42887_e_282,1,1.072543226,1,10,2,4
1,2,562,f42887_e_295,1,0.872500492,1,9,2,3
1,2,563,f42887_e_258,1,1.288983271,1,10,1,4
1,2,564,f42887_e_220,1,1.139196767,1,9,1,3
1,2,565,f42887_e_283,1,0.906035021,1,9,2,3
1,2,566,f42887_e_133,1,1.555121275,1,10,2,4
1,2,567,f42887_e_009,1,1.288830252,1,10,2,4
1,2,568,f42887_e_199,1,1.288653596,1,9,1,3
1,2,569,f42887_e_125,1,1.339326896,1,10,2,4
1,2,570,f42887_e_001,1,1.572140306,1,9,1,3
1,2,571,f42887_e_195,1,1.570741673,1,10,1,4
1,2,572,f42887_e_091,1,1.555128118,1,10,1,4
1,2,573,f42887_e_193,1,1.089019536,1,10,2,4
1,2,574,f42887_e_167,1,1.455303001,1,10,1,4
1,2,575,f42887_e_004,1,1.055392325,1,10,1,4
1,2,576,f42887_e_182,1,0.872019664,1,9,1,3
1,2,577,f42887_e_136,1,1.421669881,1,10,1,4
1,2,578,f42887_e_197,1,0.8719727,1,9,1,3
1,2,579,f42887_e_148,1,1.038736559,1,9,1,3
1,2,580,f42887_e_128,1,1.405201968,1,10,2,4
1,2,581,f42887_e_098,1,1.754340753,1,10,2,4
1,2,582,f42887_e_123,1,0.806132462,1,9,1,3
1,2,583,f42887_e_060,1,1.571344731,1,9,2,3
1,2,584,f42887_e_192,1,1.204226502,1,10,1,4
1,2,585,f42887_e_174,1,1.022173165,1,9,2,3
1,2,586,f42887_e_200,1,0.937799565,1,10,2,4
1,2,587,f42887_e_189,1,1.138202143,1,10,2,4
1,2,588,f42887_e_018,1,0.888314341,1,9,1,3
1,2,589,f42887_e_041,1,0.971972296,1,9,1,3
1,2,590,f42887_e_143,1,1.004200874,1,9,1,3
1,2,591,f42887_e_157,1,1.705075105,1,9,2,3
1,2,592,f42887_e_116,1,1.471284487,1,9,2,3
1,2,593,f42887_e_230,1,1.105029946,1,9,2,3
1,2,594,f42887_e_022,1,1.137260079,1,9,1,3
1,2,595,f42887_e_045,1,1.304407108,1,9,2,3
1,2,596,f42887_e_188,1,1.154152838,1,9,1,3
1,2,597,f42887_e_274,1,1.171222253,1,9,1,3
1,2,598,f42887_e_165,1,1.371138715,1,10,1,4
1,2,599,f42887_e_042,1,1.353400618,1,10,1,4
1,2,600,f42887_e_056,1,0.921634892,1,9,2,3
10,1,1,f42887_e_109,1,2.736453399,0,10,2,3
10,1,2,f42887_e_156,1,1.661444372,0,10,1,3
10,1,3,f42887_e_008,1,1.928190099,1,9,2,3
10,1,4,f42887_e_149,1,2.123221718,1,9,1,3
10,1,5,f42887_e_246,1,2.852995083,0,10,2,3
10,1,6,f42887_e_215,1,2.238659291,0,10,2,3
10,1,7,f42887_e_183,1,3.654012919,0,10,1,3
10,1,8,f42887_e_105,1,2.31281302,1,9,2,3
10,1,9,f42887_e_014,1,3.393622835,0,10,2,3
10,1,10,f42887_e_175,1,9.76551021,1,10,2,4
10,1,11,f42887_e_203,1,3.369153532,1,9,1,3
10,1,12,f42887_e_043,1,9.584761448,1,10,2,4
10,1,13,f42887_e_168,1,10.00588196,-1,10,1,0
10,1,14,f42887_e_213,1,4.983314843,1,9,2,3
10,1,15,f42887_e_040,1,9.655420273,1,9,1,3
10,1,16,f42887_e_004,1,6.395004996,1,9,1,3
10,1,17,f42887_e_018,1,5.884268205,1,9,1,3
10,1,18,f42887_e_052,1,9.575694665,1,9,1,3
10,1,19,f42887_e_239,1,9.785108668,1,10,2,4
10,1,20,f42887_e_229,1,9.785733813,1,9,1,3
10,1,21,f42887_e_245,1,9.395405276,1,10,2,4
10,1,22,f42887_e_075,1,1.362170566,1,10,2,4
10,1,23,f42887_e_266,1,9.795732093,1,10,1,4
10,1,24,f42887_e_076,1,3.082674365,1,10,2,4
10,1,25,f42887_e_243,1,8.13457448,1,10,2,4
10,1,26,f42887_e_285,1,1.972406526,1,10,2,4
10,1,27,f42887_e_036,1,9.695301427,1,10,1,4
10,1,28,f42887_e_048,1,2.011701723,1,9,1,3
10,1,29,f42887_e_092,1,8.1742345,1,9,1,3
10,1,30,f42887_e_117,1,2.532271644,1,10,2,4
10,1,31,f42887_e_197,1,2.893029569,1,9,1,3
10,1,32,f42887_e_134,1,9.054672214,1,10,2,4
10,1,33,f42887_e_073,1,2.542282676,1,9,2,3
10,1,34,f42887_e_165,1,3.112836533,1,9,2,3
10,1,35,f42887_e_208,1,5.248871551,1,9,1,3
10,1,36,f42887_e_124,1,2.328246642,1,10,2,4
10,1,37,f42887_e_065,1,9.180487196,1,10,1,4
10,1,38,f42887_e_235,1,2.678155343,1,10,2,4
10,1,39,f42887_e_023,1,9.740821951,1,10,1,4
10,1,40,f42887_e_204,1,4.17836077,1,9,1,3
10,1,41,f42887_e_231,1,2.877945841,1,9,1,3
10,1,42,f42887_e_187,1,3.068524312,1,10,2,4
10,1,43,f42887_e_173,1,3.728200549,1,10,2,4
10,1,44,f42887_e_072,1,2.338236213,1,9,1,3
10,1,45,f42887_e_119,1,1.727464371,1,9,2,3
10,1,46,f42887_e_127,1,8.80998727,1,10,2,4
10,1,47,f42887_e_292,1,3.097706153,1,9,2,3
10,1,48,f42887_e_181,1,3.921217397,1,9,1,3
10,1,49,f42887_e_148,1,10.00503133,-1,10,1,0
10,1,50,f42887_e_139,1,2.451303832,1,9,1,3
10,1,51,f42887_e_047,1,5.421854517,1,10,1,4
10,1,52,f42887_e_227,1,4.722757743,1,10,2,4
10,1,53,f42887_e_019,1,9.964594077,1,10,2,4
10,1,54,f42887_e_281,1,1.440926422,1,9,2,3
10,1,55,f42887_e_066,1,9.843862987,1,10,1,4
10,1,56,f42887_e_274,1,6.942564084,1,10,2,4
10,1,57,f42887_e_258,1,1.551035953,1,9,1,3
10,1,58,f42887_e_162,1,1.460486624,1,9,1,3
10,1,59,f42887_e_291,1,3.441372421,1,9,2,3
10,1,60,f42887_e_198,1,2.491036942,1,9,1,3
10,1,61,f42887_e_086,1,3.950640276,1,9,1,3
10,1,62,f42887_e_077,1,3.431539913,1,9,1,3
10,1,63,f42887_e_166,1,4.59195746,0,10,1,3
10,1,64,f42887_e_039,1,7.592831108,0,10,1,3
10,1,65,f42887_e_272,1,1.530481427,1,9,1,3
10,1,66,f42887_e_080,1,5.512394826,1,9,1,3
10,1,67,f42887_e_016,1,9.283669434,1,10,2,4
10,1,68,f42887_e_257,1,2.340516905,1,10,2,4
10,1,69,f42887_e_255,1,4.761986693,1,10,1,4
10,1,70,f42887_e_020,1,9.109248324,1,10,2,4
10,1,71,f42887_e_189,1,2.63041291,1,9,2,3
10,1,72,f42887_e_143,1,2.019821146,1,9,2,3
10,1,73,f42887_e_234,1,4.781178651,1,9,2,3
10,1,74,f42887_e_115,1,3.561367955,0,10,2,3
10,1,75,f42887_e_298,1,5.571217568,0,9,1,4
10,1,76,f42887_e_176,1,1.480967439,1,9,2,3
10,1,77,f42887_e_131,1,3.26039195,1,9,1,3
10,1,78,f42887_e_133,1,8.802589407,1,10,1,4
10,1,79,f42887_e_230,1,2.390389186,1,10,2,4
10,1,80,f42887_e_238,1,8.592335347,1,10,2,4
10,1,81,f42887_e_140,1,6.051671206,1,9,1,3
10,1,82,f42887_e_120,1,2.910182496,1,9,1,3
10,1,83,f42887_e_046,1,4.781268535,1,10,1,4
10,1,84,f42887_e_188,1,10.00342088,-1,10,1,0
10,1,85,f42887_e_180,1,1.960218683,1,9,2,3
10,1,86,f42887_e_045,1,2.155931742,1,9,2,3
10,1,87,f42887_e_034,1,3.360746106,1,9,1,3
10,1,88,f42887_e_254,1,1.779835366,1,9,2,3
10,1,89,f42887_e_059,1,3.520239309,1,9,1,3
10,1,90,f42887_e_097,1,5.441371177,1,9,2,3
10,1,91,f42887_e_232,1,4.391367958,1,9,1,3
10,1,92,f42887_e_169,1,7.788122428,1,9,1,3
10,1,93,f42887_e_121,1,3.276288989,1,9,2,3
10,1,94,f42887_e_217,1,4.620656602,1,9,1,3
10,1,95,f42887_e_118,1,1.429638041,1,10,2,4
10,1,96,f42887_e_262,1,1.715816454,1,9,2,3
10,1,97,f42887_e_270,1,4.557216493,1,9,2,3
10,1,98,f42887_e_057,1,1.583179613,1,10,2,4
10,1,99,f42887_e_201,1,1.405723593,1,9,2,3
10,1,100,f42887_e_145,1,9.977323713,1,10,1,4
10,1,101,f42887_e_147,1,3.211698737,1,9,1,3
10,1,102,f42887_e_060,1,9.598329898,1,10,1,4
10,1,103,f42887_e_202,1,7.016954187,1,10,1,4
10,1,104,f42887_e_170,1,2.105390151,1,10,2,4
10,1,105,f42887_e_240,1,1.855539517,1,9,1,3
10,1,106,f42887_e_207,1,2.325117184,1,9,1,3
10,1,107,f42887_e_128,1,4.356207428,1,10,2,4
10,1,108,f42887_e_037,1,2.305436306,1,9,1,3
10,1,109,f42887_e_160,1,4.206168224,1,9,1,3
10,1,110,f42887_e_194,1,1.595550024,1,9,2,3
10,1,111,f42887_e_297,1,2.949944841,1,9,2,3
10,1,112,f42887_e_283,1,9.428045009,1,10,2,4
10,1,113,f42887_e_029,1,6.707738085,1,10,2,4
10,1,114,f42887_e_212,1,1.739542425,1,9,2,3
10,1,115,f42887_e_218,1,2.015412784,1,10,2,4
10,1,116,f42887_e_110,1,9.1667396,1,10,1,4
10,1,117,f42887_e_224,1,4.295387641,1,10,2,4
10,1,118,f42887_e_033,1,2.105688728,1,10,2,4
10,1,119,f42887_e_174,1,8.707384769,1,10,1,4
10,1,120,f42887_e_244,1,1.745328595,1,9,2,3
10,1,121,f42887_e_226,1,1.494990285,1,9,1,3
10,1,122,f42887_e_286,1,3.435525602,1,9,2,3
10,1,123,f42887_e_028,1,1.444027266,1,10,2,4
10,1,124,f42887_e_171,1,4.845924411,1,10,2,4
10,1,125,f42887_e_054,1,1.514386582,1,9,2,3
10,1,126,f42887_e_100,1,4.594971531,1,10,1,4
10,1,127,f42887_e_155,1,9.876855414,1,10,1,4
10,1,128,f42887_e_089,1,9.046763661,1,10,1,4
10,1,129,f42887_e_083,1,3.845158064,1,9,1,3
10,1,130,f42887_e_151,1,9.061730445,1,10,1,4
10,1,131,f42887_e_192,1,5.306513982,1,10,1,4
10,1,132,f42887_e_221,1,1.494877697,1,9,1,3
10,1,133,f42887_e_006,1,1.915137316,1,9,2,3
10,1,134,f42887_e_009,1,1.585095481,1,9,2,3
10,1,135,f42887_e_184,1,1.755195936,1,9,1,3
10,1,136,f42887_e_051,1,2.084912136,1,9,1,3
10,1,137,f42887_e_112,1,3.624666239,1,9,2,3
10,1,138,f42887_e_093,1,2.244697074,1,9,2,3
10,1,139,f42887_e_135,1,8.647404419,1,10,1,4
10,1,140,f42887_e_179,1,3.864891192,1,9,1,3
10,1,141,f42887_e_137,1,3.154306675,1,9,2,3
10,1,142,f42887_e_199,1,4.144478833,1,9,1,3
10,1,143,f42887_e_241,1,2.743854372,1,9,1,3
10,1,144,f42887_e_026,1,10.00688064,1,10,2,4
10,1,145,f42887_e_279,1,5.365217605,1,10,1,4
10,1,146,f42887_e_216,1,1.454771677,1,9,2,3
10,1,147,f42887_e_273,1,1.67300116,1,9,2,3
10,1,148,f42887_e_021,1,2.244168655,1,9,1,3
10,1,149,f42887_e_017,1,9.716580313,1,10,1,4
10,1,150,f42887_e_125,1,2.114048879,1,9,1,3
10,1,151,f42887_e_250,1,3.154378209,1,9,1,3
10,1,152,f42887_e_116,1,2.734108949,1,9,2,3
10,1,153,f42887_e_247,1,8.916032113,1,10,1,4
10,1,154,f42887_e_249,1,1.233806795,1,9,2,3
10,1,155,f42887_e_222,1,2.883681626,1,10,2,4
10,1,156,f42887_e_025,1,2.083914392,1,9,1,3
10,1,157,f42887_e_091,1,9.526742375,1,10,1,4
10,1,158,f42887_e_050,1,8.095366679,1,10,1,4
10,1,159,f42887_e_090,1,2.734007557,1,9,1,3
10,1,160,f42887_e_102,1,1.823934229,1,9,1,3
10,1,161,f42887_e_078,1,1.883146987,1,9,2,3
10,1,162,f42887_e_267,1,2.814013392,1,9,2,3
10,1,163,f42887_e_098,1,1.892298367,1,9,1,3
10,1,164,f42887_e_071,1,9.956253209,1,10,1,4
10,1,165,f42887_e_260,1,2.812869158,1,9,1,3
10,1,166,f42887_e_211,1,2.502952023,1,9,1,3
10,1,167,f42887_e_167,1,5.134488328,1,9,1,3
10,1,168,f42887_e_253,1,2.513238305,1,9,2,3
10,1,169,f42887_e_049,1,8.315259172,1,9,1,3
10,1,170,f42887_e_294,1,1.332465905,1,10,1,4
10,1,171,f42887_e_182,1,5.26452444,1,10,1,4
10,1,172,f42887_e_161,1,1.98319759,1,10,2,4
10,1,173,f42887_e_030,1,1.772792685,1,9,1,3
10,1,174,f42887_e_186,1,1.843384642,1,9,2,3
10,1,175,f42887_e_114,1,2.102646977,1,9,2,3
10,1,176,f42887_e_079,1,3.60385979,1,10,1,4
10,1,177,f42887_e_099,1,1.802558306,1,9,2,3
10,1,178,f42887_e_068,1,2.673141429,1,9,1,3
10,1,179,f42887_e_141,1,3.993259628,1,9,2,3
10,1,180,f42887_e_264,1,3.262668288,1,9,1,3
10,1,181,f42887_e_290,1,2.692658089,1,9,1,3
10,1,182,f42887_e_104,1,4.973604254,1,9,1,3
10,1,183,f42887_e_056,1,2.202570995,1,9,1,3
10,1,184,f42887_e_032,1,4.503689756,1,9,2,3
10,1,185,f42887_e_142,1,7.274410132,1,10,1,4
10,1,186,f42887_e_010,1,1.18262171,1,9,2,3
10,1,187,f42887_e_000,1,3.692956666,1,10,2,4
10,1,188,f42887_e_268,1,6.703845389,1,10,2,4
10,1,189,f42887_e_157,1,8.735032049,1,10,1,4
10,1,190,f42887_e_158,1,1.372099179,1,9,2,3
10,1,191,f42887_e_035,1,1.982461411,1,9,1,3
10,1,192,f42887_e_067,1,3.682311159,1,9,1,3
10,1,193,f42887_e_103,1,7.853896101,0,10,1,3
10,1,194,f42887_e_011,1,2.972182593,1,9,2,3
10,1,195,f42887_e_191,1,3.572876225,1,9,1,3
10,1,196,f42887_e_193,1,4.643068835,1,9,2,3
10,1,197,f42887_e_163,1,9.50504206,1,10,1,4
10,1,198,f42887_e_252,1,2.942664854,1,9,2,3
10,1,199,f42887_e_041,1,2.111377549,1,9,1,3
10,1,200,f42887_e_094,1,2.041657375,1,9,1,3
10,1,201,f42887_e_280,1,9.294483513,1,10,2,4
10,1,202,f42887_e_015,1,8.953752317,1,10,2,4
10,1,203,f42887_e_159,1,2.481314845,1,9,1,3
10,1,204,f42887_e_108,1,9.624660641,1,10,1,4
10,1,205,f42887_e_177,1,2.442311694,1,9,1,3
10,1,206,f42887_e_200,1,4.322648016,1,10,2,4
10,1,207,f42887_e_055,1,8.664296713,1,10,1,4
10,1,208,f42887_e_113,1,6.453634286,1,10,1,4
10,1,209,f42887_e_152,1,4.802249154,1,10,1,4
10,1,210,f42887_e_042,1,1.771602421,1,9,2,3
10,1,211,f42887_e_220,1,2.812193628,1,9,1,3
10,1,212,f42887_e_013,1,4.732325885,1,10,2,4
10,1,213,f42887_e_251,1,1.981188417,1,9,2,3
10,1,214,f42887_e_242,1,2.35160499,1,9,1,3
10,1,215,f42887_e_196,1,1.561593131,1,9,2,3
10,1,216,f42887_e_111,1,2.571940373,1,9,1,3
10,1,217,f42887_e_195,1,5.780740427,1,9,2,3
10,1,218,f42887_e_284,1,2.71188457,1,9,2,3
10,1,219,f42887_e_153,1,3.352004026,1,9,2,3
10,1,220,f42887_e_185,1,2.131223888,1,9,2,3
10,1,221,f42887_e_299,1,1.871024146,1,10,2,4
10,1,222,f42887_e_136,1,6.222780913,1,10,1,4
10,1,223,f42887_e_069,1,1.62236471,1,9,2,3
10,1,224,f42887_e_085,1,8.733719555,1,10,1,4
10,1,225,f42887_e_074,1,1.720790557,1,9,1,3
10,1,226,f42887_e_095,1,3.771276164,1,9,1,3
10,1,227,f42887_e_276,1,3.321184056,1,10,1,4
10,1,228,f42887_e_096,1,5.711990627,1,10,2,4
10,1,229,f42887_e_031,1,8.373849274,1,10,1,4
10,1,230,f42887_e_295,1,1.87091529,1,9,2,3
10,1,231,f42887_e_123,1,2.084333954,1,9,1,3
10,1,232,f42887_e_219,1,3.18154901,1,10,1,4
10,1,233,f42887_e_233,1,1.900911064,1,9,1,3
10,1,234,f42887_e_024,1,1.210356075,1,10,2,4
10,1,235,f42887_e_002,1,4.431831958,1,10,1,4
10,1,236,f42887_e_122,1,6.092525534,1,10,1,4
10,1,237,f42887_e_228,1,1.310709297,1,10,1,4
10,1,238,f42887_e_287,1,2.380865829,1,10,2,4
10,1,239,f42887_e_269,1,2.300915356,1,10,2,4
10,1,240,f42887_e_209,1,1.510329358,1,9,2,3
10,1,241,f42887_e_129,1,9.17322276,1,10,1,4
10,1,242,f42887_e_210,1,1.901011833,1,10,2,4
10,1,243,f42887_e_237,1,3.381552867,1,10,2,4
10,1,244,f42887_e_214,1,3.351352133,1,10,2,4
10,1,245,f42887_e_296,1,1.720582175,1,9,2,3
10,1,246,f42887_e_061,1,3.457238046,1,9,2,3
10,1,247,f42887_e_288,1,2.960853158,1,10,2,4
10,1,248,f42887_e_012,1,5.201513225,1,9,1,3
10,1,249,f42887_e_236,1,1.920308604,1,10,2,4
10,1,250,f42887_e_146,1,3.051059435,1,9,1,3
10,1,251,f42887_e_044,1,8.573028001,1,10,1,4
10,1,252,f42887_e_132,1,1.459807362,1,9,2,3
10,1,253,f42887_e_150,1,2.16028381,1,9,1,3
10,1,254,f42887_e_053,1,1.219694998,1,9,2,3
10,1,255,f42887_e_138,1,8.793038993,1,10,1,4
10,1,256,f42887_e_005,1,2.890234143,1,10,2,4
10,1,257,f42887_e_144,1,2.010030626,1,9,1,3
10,1,258,f42887_e_107,1,9.28304771,1,10,1,4
10,1,259,f42887_e_027,1,9.562816985,1,10,1,4
10,1,260,f42887_e_126,1,1.030213486,1,9,2,3
10,1,261,f42887_e_259,1,1.759817657,1,10,2,4
10,1,262,f42887_e_256,1,3.260467839,1,9,1,3
10,1,263,f42887_e_154,1,6.59189619,1,10,1,4
10,1,264,f42887_e_130,1,1.689995157,1,9,2,3
10,1,265,f42887_e_003,1,1.28931969,1,9,2,3
10,1,266,f42887_e_205,1,1.429928531,1,10,2,4
10,1,267,f42887_e_277,1,8.561958577,1,10,1,4
10,1,268,f42887_e_038,1,9.312278381,1,10,1,4
10,1,269,f42887_e_164,1,1.469275668,1,10,2,4
10,1,270,f42887_e_106,1,1.569456898,1,10,2,4
10,1,271,f42887_e_293,1,1.910202401,1,10,2,4
10,1,272,f42887_e_271,1,1.779796489,1,9,2,3
10,1,273,f42887_e_064,1,1.3495417,1,9,2,3
10,1,274,f42887_e_070,1,1.549561419,1,9,2,3
10,1,275,f42887_e_263,1,1.619587945,1,9,2,3
10,1,276,f42887_e_062,1,4.961073359,1,9,1,3
10,1,277,f42887_e_275,1,8.432029144,1,10,1,4
10,1,278,f42887_e_178,1,1.599338528,1,10,2,4
10,1,279,f42887_e_282,1,1.85918993,1,9,2,3
10,1,280,f42887_e_101,1,1.468548509,1,9,2,3
10,1,281,f42887_e_084,1,8.961593069,1,10,1,4
10,1,282,f42887_e_063,1,1.999760517,1,10,2,4
10,1,283,f42887_e_225,1,8.812241525,1,10,1,4
10,1,284,f42887_e_007,1,1.468685357,1,9,2,3
10,1,285,f42887_e_081,1,1.409690622,1,9,2,3
10,1,286,f42887_e_261,1,9.001141434,1,10,1,4
10,1,287,f42887_e_265,1,1.599043372,1,9,1,3
10,1,288,f42887_e_082,1,8.51093211,1,10,1,4
10,1,289,f42887_e_206,1,1.88468839,1,10,2,4
10,1,290,f42887_e_058,1,1.468559395,1,9,1,3
10,1,291,f42887_e_001,1,3.008648153,1,9,1,3
10,1,292,f42887_e_087,1,1.658652056,1,9,1,3
10,1,293,f42887_e_088,1,1.519006436,1,9,1,3
10,1,294,f42887_e_190,1,1.649169132,1,9,2,3
10,1,295,f42887_e_223,1,1.909452849,1,9,2,3
10,1,296,f42887_e_172,1,1.798896074,1,10,2,4
10,1,297,f42887_e_278,1,3.189223679,1,9,1,3
10,1,298,f42887_e_022,1,1.488582703,1,10,2,4
10,1,299,f42887_e_248,1,5.100100365,1,10,1,4
10,1,300,f42887_e_289,1,2.508971767,1,10,2,4
10,2,301,f42887_e_159,1,2.938341711,1,10,2,4
10,2,302,f42887_e_043,1,1.098653201,1,9,2,3
10,2,303,f42887_e_058,1,1.389152269,1,10,2,4
10,2,304,f42887_e_189,1,2.419100456,1,9,1,3
10,2,305,f42887_e_219,1,2.068749178,1,10,2,4
10,2,306,f42887_e_236,1,1.828603845,1,9,1,3
10,2,307,f42887_e_025,1,10.0013551,-1,10,1,0
10,2,308,f42887_e_160,1,1.667909493,1,9,1,3
10,2,309,f42887_e_095,1,1.867194899,1,9,2,3
10,2,310,f42887_e_184,1,2.028425757,1,9,1,3
10,2,311,f42887_e_015,1,3.328933991,1,10,1,4
10,2,312,f42887_e_081,1,1.677976819,1,10,2,4
10,2,313,f42887_e_147,1,3.968704485,1,9,1,3
10,2,314,f42887_e_125,1,3.468668562,1,9,1,3
10,2,315,f42887_e_066,1,2.208161535,1,9,1,3
10,2,316,f42887_e_139,1,1.928187922,1,9,1,3
10,2,317,f42887_e_167,1,1.517722867,1,9,2,3
10,2,318,f42887_e_029,1,4.818752677,1,10,2,4
10,2,319,f42887_e_249,1,2.248107692,1,10,2,4
10,2,320,f42887_e_240,1,1.417745042,1,9,2,3
10,2,321,f42887_e_141,1,3.068316552,1,9,1,3
10,2,322,f42887_e_018,1,2.038612825,1,10,2,4
10,2,323,f42887_e_073,1,6.569918759,1,10,1,4
10,2,324,f42887_e_041,1,9.370500859,1,10,1,4
10,2,325,f42887_e_190,1,1.707564848,1,10,2,4
10,2,326,f42887_e_264,1,2.017818816,1,9,2,3
10,2,327,f42887_e_194,1,2.488034068,1,9,1,3
10,2,328,f42887_e_226,1,1.416944794,1,9,1,3
10,2,329,f42887_e_134,1,6.668955756,1,10,2,4
10,2,330,f42887_e_294,1,2.207835278,1,9,2,3
10,2,331,f42887_e_003,1,1.647514519,1,9,1,3
10,2,332,f42887_e_234,1,9.410692098,1,10,1,4
10,2,333,f42887_e_004,1,9.019499243,1,10,1,4
10,2,334,f42887_e_106,1,7.339960806,1,10,1,4
10,2,335,f42887_e_280,1,3.487147979,1,9,1,3
10,2,336,f42887_e_272,1,1.336853119,1,10,2,4
10,2,337,f42887_e_232,1,1.51780964,1,10,2,4
10,2,338,f42887_e_026,1,1.507761598,1,9,1,3
10,2,339,f42887_e_209,1,4.1585446,1,10,1,4
10,2,340,f42887_e_270,1,2.53768988,1,9,1,3
10,2,341,f42887_e_171,1,2.216916056,1,9,2,3
10,2,342,f42887_e_182,1,2.087663397,1,10,2,4
10,2,343,f42887_e_148,1,4.057661714,1,9,1,3
10,2,344,f42887_e_193,1,1.377087588,1,10,2,4
10,2,345,f42887_e_245,1,9.680049128,1,10,1,4
10,2,346,f42887_e_020,1,2.657345783,1,10,1,4
10,2,347,f42887_e_093,1,1.246105983,1,10,2,4
10,2,348,f42887_e_034,1,2.197220872,1,10,1,4
10,2,349,f42887_e_197,1,1.546707211,1,10,2,4
10,2,350,f42887_e_251,1,1.496925436,1,9,1,3
10,2,351,f42887_e_259,1,2.167673897,1,10,2,4
10,2,352,f42887_e_237,1,2.507153247,1,10,2,4
10,2,353,f42887_e_049,1,5.067743969,1,10,1,4
10,2,354,f42887_e_001,1,1.40744041,1,9,2,3
10,2,355,f42887_e_108,1,8.948325373,1,10,1,4
10,2,356,f42887_e_274,1,1.586479198,1,10,2,4
10,2,357,f42887_e_082,1,0.985899088,1,9,2,3
10,2,358,f42887_e_046,1,1.126537476,1,10,2,4
10,2,359,f42887_e_110,1,5.057523001,1,10,1,4
10,2,360,f42887_e_287,1,1.476644606,1,9,1,3
10,2,361,f42887_e_112,1,1.276436722,1,9,1,3
10,2,362,f42887_e_260,1,1.815513429,1,10,1,4
10,2,363,f42887_e_153,1,1.836385815,1,10,2,4
10,2,364,f42887_e_155,1,8.609312549,1,10,1,4
10,2,365,f42887_e_265,1,1.466661877,1,10,2,4
10,2,366,f42887_e_100,1,1.166088641,1,10,2,4
10,2,367,f42887_e_253,1,1.43676594,1,9,1,3
10,2,368,f42887_e_130,1,1.336251611,1,9,2,3
10,2,369,f42887_e_286,1,1.866183159,1,10,2,4
10,2,370,f42887_e_035,1,8.948711035,1,10,1,4
10,2,371,f42887_e_204,1,1.416226966,1,9,1,3
10,2,372,f42887_e_210,1,1.186036993,1,9,2,3
10,2,373,f42887_e_097,1,1.166414587,1,9,2,3
10,2,374,f42887_e_282,1,1.615530411,1,9,1,3
10,2,375,f42887_e_166,1,1.245422366,1,10,2,4
10,2,376,f42887_e_092,1,1.045612585,1,9,2,3
10,2,377,f42887_e_085,1,0.975808125,1,9,2,3
10,2,378,f42887_e_250,1,2.827157925,1,9,1,3
10,2,379,f42887_e_007,1,1.636092712,1,9,1,3
10,2,380,f42887_e_039,1,9.90890297,1,10,1,4
10,2,381,f42887_e_072,1,1.435617664,1,9,1,3
10,2,382,f42887_e_088,1,1.615292171,1,9,2,3
10,2,383,f42887_e_143,1,2.075427657,1,9,2,3
10,2,384,f42887_e_196,1,1.395668708,1,9,2,3
10,2,385,f42887_e_105,1,2.225896998,1,10,2,4
10,2,386,f42887_e_239,1,1.375641357,1,9,2,3
10,2,387,f42887_e_199,1,8.898569413,1,10,1,4
10,2,388,f42887_e_266,1,1.155155753,1,9,2,3
10,2,389,f42887_e_094,1,1.495411714,1,9,1,3
10,2,390,f42887_e_071,1,2.355916626,1,9,1,3
10,2,391,f42887_e_103,1,2.625675802,1,9,1,3
10,2,392,f42887_e_262,1,1.295745623,1,9,2,3
10,2,393,f42887_e_022,1,1.235321451,1,9,2,3
10,2,394,f42887_e_120,1,3.006900546,1,9,1,3
10,2,395,f42887_e_040,1,9.317784013,1,10,1,4
10,2,396,f42887_e_151,1,6.417159707,1,10,1,4
10,2,397,f42887_e_244,1,1.535660491,1,9,2,3
10,2,398,f42887_e_133,1,1.715201883,1,10,2,4
10,2,399,f42887_e_255,1,1.174878929,1,9,2,3
10,2,400,f42887_e_099,1,1.745637124,1,10,2,4
10,2,401,f42887_e_267,1,1.650387077,1,9,1,3
10,2,402,f42887_e_086,1,2.335130704,1,9,1,3
10,2,403,f42887_e_178,1,2.535335789,1,10,1,4
10,2,404,f42887_e_027,1,1.214873604,1,9,2,3
10,2,405,f42887_e_036,1,4.325544833,1,10,1,4
10,2,406,f42887_e_289,1,1.384921809,1,10,2,4
10,2,407,f42887_e_257,1,1.4800235,1,9,1,3
10,2,408,f42887_e_297,1,2.035026171,1,9,2,3
10,2,409,f42887_e_229,1,1.944711971,1,9,1,3
10,2,410,f42887_e_231,1,2.295407546,1,9,1,3
10,2,411,f42887_e_292,1,1.234747312,1,10,2,4
10,2,412,f42887_e_216,1,1.274988625,1,9,2,3
10,2,413,f42887_e_111,1,1.474689861,1,9,2,3
10,2,414,f42887_e_225,1,9.057389885,1,10,1,4
10,2,415,f42887_e_177,1,6.336611769,1,10,1,4
10,2,416,f42887_e_132,1,5.736256836,1,10,1,4
10,2,417,f42887_e_206,1,1.264214356,1,10,2,4
10,2,418,f42887_e_218,1,1.5438642,1,9,2,3
10,2,419,f42887_e_060,1,1.253989655,1,9,2,3
10,2,420,f42887_e_269,1,1.22454656,1,10,2,4
10,2,421,f42887_e_230,1,1.354320795,1,10,2,4
10,2,422,f42887_e_051,1,8.408870468,1,10,1,4
10,2,423,f42887_e_008,1,1.364356708,1,9,1,3
10,2,424,f42887_e_069,1,6.706211611,1,10,1,4
10,2,425,f42887_e_201,1,1.914219814,1,9,1,3
10,2,426,f42887_e_187,1,1.194288599,1,9,2,3
10,2,427,f42887_e_258,1,1.834036699,1,9,1,3
10,2,428,f42887_e_217,1,1.324160805,1,9,2,3
10,2,429,f42887_e_227,1,2.049128016,1,9,1,3
10,2,430,f42887_e_083,1,1.223871652,1,10,2,4
10,2,431,f42887_e_233,1,1.394712018,1,10,2,4
10,2,432,f42887_e_188,1,1.324696999,1,9,2,3
10,2,433,f42887_e_116,1,2.794817702,1,10,1,4
10,2,434,f42887_e_096,1,1.303734107,1,10,2,4
10,2,435,f42887_e_115,1,5.665218569,1,10,1,4
10,2,436,f42887_e_200,1,3.204595719,1,10,1,4
10,2,437,f42887_e_220,1,1.423200911,1,10,2,4
10,2,438,f42887_e_109,1,7.045987672,1,10,1,4
10,2,439,f42887_e_089,1,6.23555658,1,10,1,4
10,2,440,f42887_e_157,1,1.394108333,1,9,1,3
10,2,441,f42887_e_211,1,2.844596366,1,10,1,4
10,2,442,f42887_e_019,1,9.10634653,1,10,1,4
10,2,443,f42887_e_077,1,1.19351883,1,10,2,4
10,2,444,f42887_e_152,1,1.124045915,1,9,2,3
10,2,445,f42887_e_087,1,1.873502334,1,9,1,3
10,2,446,f42887_e_037,1,1.214033546,1,10,2,4
10,2,447,f42887_e_291,1,1.333848689,1,9,2,3
10,2,448,f42887_e_059,1,1.564619954,1,9,1,3
10,2,449,f42887_e_228,1,1.494427655,1,10,2,4
10,2,450,f42887_e_137,1,1.953847178,1,9,1,3
10,2,451,f42887_e_161,1,1.863821914,1,10,1,4
10,2,452,f42887_e_198,1,2.623463846,1,10,1,4
10,2,453,f42887_e_248,1,1.862966927,1,10,2,4
10,2,454,f42887_e_241,1,5.754824581,1,10,1,4
10,2,455,f42887_e_117,1,1.393992634,1,9,2,3
10,2,456,f42887_e_123,1,3.083836015,1,9,2,3
10,2,457,f42887_e_121,1,2.884033698,1,9,1,3
10,2,458,f42887_e_013,1,1.532461987,1,9,2,3
10,2,459,f42887_e_213,1,1.373213865,1,9,1,3
10,2,460,f42887_e_048,1,1.163874507,1,9,2,3
10,2,461,f42887_e_068,1,1.673226026,1,9,1,3
10,2,462,f42887_e_078,1,8.044940165,1,10,1,4
10,2,463,f42887_e_296,1,1.759812991,1,9,1,3
10,2,464,f42887_e_271,1,1.81330987,1,10,2,4
10,2,465,f42887_e_273,1,3.924816181,1,10,1,4
10,2,466,f42887_e_195,1,2.203745708,1,9,2,3
10,2,467,f42887_e_242,1,2.473698026,1,10,2,4
10,2,468,f42887_e_032,1,1.382758682,1,9,2,3
10,2,469,f42887_e_061,1,4.203574338,1,10,1,4
10,2,470,f42887_e_136,1,1.332249126,1,9,2,3
10,2,471,f42887_e_030,1,1.872764912,1,10,2,4
10,2,472,f42887_e_128,1,1.29277074,1,10,2,4
10,2,473,f42887_e_224,1,2.577371361,1,10,2,4
10,2,474,f42887_e_285,1,1.753323922,1,10,2,4
10,2,475,f42887_e_124,1,2.793216273,1,9,1,3
10,2,476,f42887_e_223,1,1.93237484,1,9,1,3
10,2,477,f42887_e_207,1,1.712865519,1,10,2,4
10,2,478,f42887_e_169,1,1.372416105,1,9,2,3
10,2,479,f42887_e_113,1,1.552686212,1,9,1,3
10,2,480,f42887_e_268,1,1.833141591,1,9,1,3
10,2,481,f42887_e_183,1,3.233320675,1,9,1,3
10,2,482,f42887_e_054,1,1.742244545,1,9,1,3
10,2,483,f42887_e_191,1,1.152556891,1,9,2,3
10,2,484,f42887_e_186,1,2.263053327,1,9,2,3
10,2,485,f42887_e_076,1,2.412089811,1,10,2,4
10,2,486,f42887_e_203,1,1.601246309,1,10,2,4
10,2,487,f42887_e_042,1,9.524775189,1,10,1,4
10,2,488,f42887_e_263,1,1.95209335,1,9,2,3
10,2,489,f42887_e_142,1,1.432309059,1,9,2,3
10,2,490,f42887_e_062,1,2.14310258,1,10,1,4
10,2,491,f42887_e_212,1,2.832339788,1,10,2,4
10,2,492,f42887_e_165,1,1.50187839,1,10,2,4
10,2,493,f42887_e_114,1,1.211713666,1,9,2,3
10,2,494,f42887_e_064,1,1.062295875,1,10,2,4
10,2,495,f42887_e_016,1,1.452006421,1,10,2,4
10,2,496,f42887_e_118,1,1.151439094,1,9,1,3
10,2,497,f42887_e_074,1,1.262329279,1,9,1,3
10,2,498,f42887_e_179,1,2.191593632,1,9,2,3
10,2,499,f42887_e_012,1,1.771251283,1,9,2,3
10,2,500,f42887_e_031,1,1.871400789,1,10,2,4
10,2,501,f42887_e_140,1,1.698427153,1,10,2,4
10,2,502,f42887_e_261,1,1.322066724,1,9,1,3
10,2,503,f42887_e_170,1,2.271921992,0,10,1,3
10,2,504,f42887_e_173,1,1.561748329,1,9,1,3
10,2,505,f42887_e_176,1,1.431910646,1,9,1,3
10,2,506,f42887_e_075,1,1.301742351,1,9,2,3
10,2,507,f42887_e_145,1,7.213096761,1,10,1,4
10,2,508,f42887_e_011,1,1.391910061,1,9,1,3
10,2,509,f42887_e_205,1,3.771975331,1,10,1,4
10,2,510,f42887_e_221,1,1.541493002,1,9,1,3
10,2,511,f42887_e_215,1,1.25125239,1,9,2,3
10,2,512,f42887_e_005,1,1.831867974,1,10,2,4
10,2,513,f42887_e_056,1,1.411352388,1,9,1,3
10,2,514,f42887_e_175,1,1.711522857,1,10,1,4
10,2,515,f42887_e_238,1,2.061468569,1,10,1,4
10,2,516,f42887_e_045,1,1.911786413,1,9,1,3
10,2,517,f42887_e_275,1,1.621106644,1,10,2,4
10,2,518,f42887_e_254,1,2.661426022,1,9,1,3
10,2,519,f42887_e_181,1,2.641645308,1,10,1,4
10,2,520,f42887_e_047,1,3.451890722,1,10,1,4
10,2,521,f42887_e_214,1,1.271237753,1,9,1,3
10,2,522,f42887_e_256,1,2.020405548,1,9,2,3
10,2,523,f42887_e_084,1,1.311165871,1,9,2,3
10,2,524,f42887_e_235,1,1.421761522,1,10,2,4
10,2,525,f42887_e_185,1,3.141786043,1,10,2,4
10,2,526,f42887_e_065,1,1.420876678,1,9,1,3
10,2,527,f42887_e_002,1,1.500790451,1,9,2,3
10,2,528,f42887_e_038,1,1.740919921,1,9,2,3
10,2,529,f42887_e_010,1,3.631214713,1,9,2,3
10,2,530,f42887_e_135,1,1.790549297,1,10,2,4
10,2,531,f42887_e_298,1,2.110705752,1,9,1,3
10,2,532,f42887_e_247,1,3.22109582,1,9,1,3
10,2,533,f42887_e_156,1,1.910721489,1,9,2,3
10,2,534,f42887_e_288,1,2.630543226,1,10,1,4
10,2,535,f42887_e_057,1,2.03061532,1,9,1,3
10,2,536,f42887_e_079,1,3.181741219,1,10,1,4
10,2,537,f42887_e_052,1,2.170497936,1,10,2,4
10,2,538,f42887_e_158,1,1.210198389,1,9,2,3
10,2,539,f42887_e_024,1,4.935577698,1,10,1,4
10,2,540,f42887_e_063,1,1.2500727,1,10,2,4
10,2,541,f42887_e_276,1,1.551509632,1,9,1,3
10,2,542,f42887_e_000,1,2.701581493,1,9,2,3
10,2,543,f42887_e_055,1,1.150495155,1,9,1,3
10,2,544,f42887_e_070,1,1.430595042,1,10,2,4
10,2,545,f42887_e_101,1,3.591110249,1,10,1,4
10,2,546,f42887_e_126,1,1.40010444,1,9,1,3
10,2,547,f42887_e_122,1,1.760161331,1,10,1,4
10,2,548,f42887_e_023,1,2.080923025,1,9,2,3
10,2,549,f42887_e_279,1,3.760772169,1,10,1,4
10,2,550,f42887_e_290,1,3.92090047,1,10,1,4
10,2,551,f42887_e_119,1,3.621259353,1,10,2,4
10,2,552,f42887_e_131,1,4.201248238,1,10,1,4
10,2,553,f42887_e_243,1,1.260462862,1,9,2,3
10,2,554,f42887_e_127,1,1.430794404,1,10,2,4
10,2,555,f42887_e_090,1,2.390269444,1,10,1,4
10,2,556,f42887_e_102,1,4.541249476,1,10,1,4
10,2,557,f42887_e_284,1,3.600788803,1,10,1,4
10,2,558,f42887_e_154,1,2.76045742,1,9,2,3
10,2,559,f42887_e_295,1,1.109869114,1,10,2,4
10,2,560,f42887_e_192,1,1.34007215,1,9,2,3
10,2,561,f42887_e_006,1,1.640601533,1,10,2,4
10,2,562,f42887_e_028,1,1.289873923,1,9,2,3
10,2,563,f42887_e_164,1,1.660311957,1,9,2,3
10,2,564,f42887_e_283,1,1.28931378,1,9,2,3
10,2,565,f42887_e_050,1,1.400280476,1,9,1,3
10,2,566,f42887_e_277,1,2.500757794,1,10,1,4
10,2,567,f42887_e_080,1,1.259029383,1,10,1,4
10,2,568,f42887_e_044,1,1.540146296,1,9,2,3
10,2,569,f42887_e_033,1,2.689799216,1,10,1,4
10,2,570,f42887_e_138,1,2.259366837,1,10,2,4
10,2,571,f42887_e_107,1,2.099787793,1,10,2,4
10,2,572,f42887_e_144,1,2.240099613,1,9,2,3
10,2,573,f42887_e_091,1,4.050203203,1,9,2,3
10,2,574,f42887_e_163,1,1.879667012,1,10,2,4
10,2,575,f42887_e_299,1,9.757959016,1,10,1,4
10,2,576,f42887_e_281,1,1.468715215,1,9,1,3
10,2,577,f42887_e_017,1,2.058850734,1,10,2,4
10,2,578,f42887_e_162,1,1.249542104,1,9,2,3
10,2,579,f42887_e_202,1,1.230579367,1,10,2,4
10,2,580,f42887_e_174,1,2.138978799,1,9,1,3
10,2,581,f42887_e_053,1,1.639278464,1,10,2,4
10,2,582,f42887_e_149,1,6.3515742,1,10,1,4
10,2,583,f42887_e_021,1,1.448612598,1,9,1,3
10,2,584,f42887_e_222,1,1.349360999,1,9,2,3
10,2,585,f42887_e_168,1,1.190329657,1,9,1,3
10,2,586,f42887_e_098,1,2.140293781,1,9,1,3
10,2,587,f42887_e_129,1,2.259387053,1,9,2,3
10,2,588,f42887_e_208,1,2.829613097,1,10,1,4
10,2,589,f42887_e_293,1,4.72948474,1,10,1,4
10,2,590,f42887_e_180,1,1.308415854,1,10,2,4
10,2,591,f42887_e_252,1,1.398697707,1,9,1,3
10,2,592,f42887_e_278,1,2.628650374,1,10,2,4
10,2,593,f42887_e_246,1,4.609831015,1,10,1,4
10,2,594,f42887_e_150,1,1.678569307,1,10,2,4
10,2,595,f42887_e_104,1,1.818196266,1,9,2,3
10,2,596,f42887_e_172,1,1.818629825,1,9,2,3
10,2,597,f42887_e_067,1,2.908656955,0,10,1,3
10,2,598,f42887_e_146,1,1.128698115,1,9,1,3
10,2,599,f42887_e_014,1,1.719095822,1,10,1,4
10,2,600,f42887_e_009,1,2.118544948,1,9,1,3
13,1,1,f42887_e_102,1,1.144662738,1,9,1,3
13,1,2,f42887_e_130,1,0.7700131,0,9,1,4
13,1,3,f42887_e_254,1,1.571003942,1,10,1,4
13,1,4,f42887_e_178,1,1.370441559,1,10,1,4
13,1,5,f42887_e_154,1,1.230324977,1,9,1,3
13,1,6,f42887_e_236,1,1.14045186,1,9,2,3
13,1,7,f42887_e_268,1,1.400576752,1,9,1,3
13,1,8,f42887_e_046,1,1.179558379,1,9,2,3
13,1,9,f42887_e_232,1,1.320152685,0,10,2,3
13,1,10,f42887_e_227,1,1.600111842,1,9,1,3
13,1,11,f42887_e_131,1,1.170359699,1,10,1,4
13,1,12,f42887_e_061,1,1.090370435,0,10,2,3
13,1,13,f42887_e_139,1,1.580261405,1,10,1,4
13,1,14,f42887_e_149,1,1.309942574,1,9,1,3
13,1,15,f42887_e_152,1,1.379671963,1,9,1,3
13,1,16,f42887_e_084,1,1.348886119,1,10,2,4
13,1,17,f42887_e_079,1,2.110418369,1,9,2,3
13,1,18,f42887_e_073,1,3.790623978,1,9,2,3
13,1,19,f42887_e_090,1,1.675482483,1,9,1,3
13,1,20,f42887_e_245,1,1.479158347,1,10,2,4
13,1,21,f42887_e_292,1,2.470244249,1,9,2,3
13,1,22,f42887_e_103,1,1.389480861,1,9,2,3
13,1,23,f42887_e_287,1,2.360010313,1,9,1,3
13,1,24,f42887_e_013,1,2.419982745,1,9,1,3
13,1,25,f42887_e_211,1,1.90396001,1,9,2,3
13,1,26,f42887_e_193,1,1.539257363,1,9,1,3
13,1,27,f42887_e_008,1,1.653566261,1,9,1,3
13,1,28,f42887_e_100,1,1.61532033,1,10,1,4
13,1,29,f42887_e_009,1,1.539555318,1,9,1,3
13,1,30,f42887_e_101,1,1.660024869,1,10,1,4
13,1,31,f42887_e_043,1,1.429194176,1,10,1,4
13,1,32,f42887_e_196,1,1.285382696,1,10,1,4
13,1,33,f42887_e_220,1,1.219100323,1,10,1,4
13,1,34,f42887_e_020,1,1.430469663,1,9,2,3
13,1,35,f42887_e_074,1,0.929498663,1,10,1,4
13,1,36,f42887_e_075,1,1.904879692,1,10,2,4
13,1,37,f42887_e_168,1,1.459423919,1,9,1,3
13,1,38,f42887_e_202,1,1.309095982,1,10,2,4
13,1,39,f42887_e_212,1,1.549141527,1,9,2,3
13,1,40,f42887_e_050,1,1.549122244,1,10,1,4
13,1,41,f42887_e_033,1,1.709505717,1,9,2,3
13,1,42,f42887_e_299,1,1.528836381,1,10,2,4
13,1,43,f42887_e_296,1,1.549254427,1,10,1,4
13,1,44,f42887_e_081,1,1.54887063,1,10,1,4
13,1,45,f42887_e_059,1,1.359029983,1,9,2,3
13,1,46,f42887_e_191,1,2.289333873,1,9,2,3
13,1,47,f42887_e_165,1,1.234832255,1,9,1,3
13,1,48,f42887_e_263,1,1.409142821,1,10,2,4
13,1,49,f42887_e_023,1,1.228851061,1,9,1,3
13,1,50,f42887_e_120,1,1.057894206,1,9,1,3
13,1,51,f42887_e_012,1,1.294042692,1,9,1,3
13,1,52,f42887_e_226,1,1.188783184,1,9,2,3
13,1,53,f42887_e_077,1,1.428643674,1,10,1,4
13,1,54,f42887_e_010,1,1.194227561,1,9,1,3
13,1,55,f42887_e_155,1,1.181074282,1,9,1,3
13,1,56,f42887_e_056,1,1.268157875,1,9,1,3
13,1,57,f42887_e_238,1,1.828840362,1,10,2,4
13,1,58,f42887_e_195,1,1.477757831,1,9,2,3
13,1,59,f42887_e_041,1,1.508464987,1,9,1,3
13,1,60,f42887_e_269,1,1.508462188,1,10,1,4
13,1,61,f42887_e_072,1,1.314158739,1,9,1,3
13,1,62,f42887_e_224,1,1.76081131,1,10,2,4
13,1,63,f42887_e_242,1,1.548303644,1,10,1,4
13,1,64,f42887_e_001,1,1.103515005,1,10,1,4
13,1,65,f42887_e_060,1,1.408779862,1,10,1,4
13,1,66,f42887_e_215,1,1.151207187,1,9,1,3
13,1,67,f42887_e_064,1,1.478599758,1,10,1,4
13,1,68,f42887_e_124,1,0.987053549,1,10,1,4
13,1,69,f42887_e_115,1,3.369237296,1,9,2,3
13,1,70,f42887_e_203,1,1.463381939,1,9,1,3
13,1,71,f42887_e_122,1,1.358157577,1,10,1,4
13,1,72,f42887_e_265,1,2.00980952,1,9,2,3
13,1,73,f42887_e_176,1,1.267671754,1,10,1,4
13,1,74,f42887_e_217,1,1.597907033,1,10,2,4
13,1,75,f42887_e_037,1,2.108299712,1,9,2,3
13,1,76,f42887_e_277,1,1.433787607,1,10,2,4
13,1,77,f42887_e_141,1,3.158652345,1,9,2,3
13,1,78,f42887_e_083,1,1.406456555,1,10,1,4
13,1,79,f42887_e_111,1,1.678113076,1,10,2,4
13,1,80,f42887_e_171,1,1.567263635,1,9,1,3
13,1,81,f42887_e_183,1,1.797868218,1,9,2,3
13,1,82,f42887_e_047,1,1.354436553,1,9,2,3
13,1,83,f42887_e_062,1,1.557485528,1,10,2,4
13,1,84,f42887_e_201,1,1.107833807,1,9,1,3
13,1,85,f42887_e_197,1,1.137955004,1,10,2,4
13,1,86,f42887_e_128,1,1.678406056,1,10,2,4
13,1,87,f42887_e_222,1,1.26730102,1,9,2,3
13,1,88,f42887_e_177,1,1.493962511,1,9,1,3
13,1,89,f42887_e_248,1,1.327540305,1,9,1,3
13,1,90,f42887_e_157,1,1.527490915,1,10,1,4
13,1,91,f42887_e_051,1,1.187571767,1,10,1,4
13,1,92,f42887_e_082,1,1.207491251,1,10,1,4
13,1,93,f42887_e_161,1,1.55758381,1,9,1,3
13,1,94,f42887_e_123,1,1.36752514,1,9,2,3
13,1,95,f42887_e_025,1,2.24796003,1,10,2,4
13,1,96,f42887_e_003,1,1.426401231,1,9,2,3
13,1,97,f42887_e_092,1,1.290779176,1,10,2,4
13,1,98,f42887_e_190,1,1.086602759,1,10,2,4
13,1,99,f42887_e_175,1,1.506321138,1,9,2,3
13,1,100,f42887_e_066,1,1.857284237,1,9,2,3
13,1,101,f42887_e_067,1,1.548438937,1,9,2,3
13,1,102,f42887_e_070,1,1.297258622,1,9,2,3
13,1,103,f42887_e_156,1,1.642123584,1,10,1,4
13,1,104,f42887_e_251,1,1.337418871,1,9,1,3
13,1,105,f42887_e_080,1,1.110990954,1,9,1,3
13,1,106,f42887_e_142,1,1.896981691,1,10,2,4
13,1,107,f42887_e_022,1,1.116832502,1,9,2,3
13,1,108,f42887_e_258,1,1.106450397,1,10,1,4
13,1,109,f42887_e_279,1,1.486292798,1,9,1,3
13,1,110,f42887_e_109,1,1.376832676,1,9,1,3
13,1,111,f42887_e_289,1,1.296748863,1,10,2,4
13,1,112,f42887_e_007,1,1.359400717,1,10,2,4
13,1,113,f42887_e_207,1,1.989516503,1,10,2,4
13,1,114,f42887_e_087,1,2.246813306,1,10,2,4
13,1,115,f42887_e_116,1,1.606828595,1,10,1,4
13,1,116,f42887_e_259,1,1.527031541,1,10,1,4
13,1,117,f42887_e_143,1,1.266300785,1,9,1,3
13,1,118,f42887_e_110,1,1.946698602,1,10,1,4
13,1,119,f42887_e_239,1,1.200683681,0,9,2,4
13,1,120,f42887_e_039,1,2.336794657,1,10,2,4
13,1,121,f42887_e_180,1,1.406501342,1,10,2,4
13,1,122,f42887_e_184,1,1.36612338,1,10,2,4
13,1,123,f42887_e_015,1,1.91631335,1,10,1,4
13,1,124,f42887_e_182,1,1.294325096,1,9,2,3
13,1,125,f42887_e_040,1,1.405551492,1,10,2,4
13,1,126,f42887_e_095,1,1.985006115,1,10,1,4
13,1,127,f42887_e_011,1,1.282067862,1,10,2,4
13,1,128,f42887_e_094,1,1.235930772,1,10,2,4
13,1,129,f42887_e_241,1,1.365596515,1,10,1,4
13,1,130,f42887_e_278,1,1.064471623,1,10,2,4
13,1,131,f42887_e_243,1,1.535879081,1,10,1,4
13,1,132,f42887_e_185,1,1.353240687,1,10,1,4
13,1,133,f42887_e_172,1,1.346367181,1,10,2,4
13,1,134,f42887_e_004,1,1.766176688,1,10,2,4
13,1,135,f42887_e_250,1,1.325974638,1,10,1,4
13,1,136,f42887_e_272,1,1.335726309,1,9,2,3
13,1,137,f42887_e_159,1,1.352264089,1,9,1,3
13,1,138,f42887_e_198,1,1.626110802,1,10,2,4
13,1,139,f42887_e_151,1,1.295936483,1,9,1,3
13,1,140,f42887_e_136,1,1.52643563,1,10,1,4
13,1,141,f42887_e_016,1,1.485562527,1,9,2,3
13,1,142,f42887_e_290,1,1.395266114,1,9,2,3
13,1,143,f42887_e_170,1,1.655737481,1,10,1,4
13,1,144,f42887_e_030,1,2.146097777,1,9,2,3
13,1,145,f42887_e_221,1,1.525500086,1,10,1,4
13,1,146,f42887_e_262,1,1.901172975,1,10,1,4
13,1,147,f42887_e_144,1,1.41549195,1,9,2,3
13,1,148,f42887_e_078,1,2.986057046,1,9,2,3
13,1,149,f42887_e_035,1,1.303642585,1,10,2,4
13,1,150,f42887_e_244,1,1.185377844,1,9,1,3
13,1,151,f42887_e_137,1,2.365733363,1,10,2,4
13,1,152,f42887_e_253,1,1.705776918,1,10,2,4
13,1,153,f42887_e_026,1,1.475534361,1,9,2,3
13,1,154,f42887_e_230,1,1.535734146,1,9,1,3
13,1,155,f42887_e_088,1,1.570441932,1,10,1,4
13,1,156,f42887_e_096,1,1.003758346,1,10,1,4
13,1,157,f42887_e_132,1,1.565010618,1,9,2,3
13,1,158,f42887_e_275,1,1.374937019,1,10,2,4
13,1,159,f42887_e_297,1,1.985668895,1,10,1,4
13,1,160,f42887_e_166,1,1.505033522,1,9,2,3
13,1,161,f42887_e_018,1,1.305076069,1,9,2,3
13,1,162,f42887_e_049,1,2.585778249,1,9,2,3
13,1,163,f42887_e_264,1,0.935196831,1,10,2,4
13,1,164,f42887_e_150,1,1.214621348,1,9,1,3
13,1,165,f42887_e_192,1,1.580609434,1,10,2,4
13,1,166,f42887_e_163,1,1.327578249,1,10,1,4
13,1,167,f42887_e_266,1,1.314396979,1,10,2,4
13,1,168,f42887_e_006,1,1.615343346,1,9,2,3
13,1,169,f42887_e_206,1,1.18505594,1,10,1,4
13,1,170,f42887_e_028,1,1.705187849,1,9,2,3
13,1,171,f42887_e_089,1,1.570488274,1,9,2,3
13,1,172,f42887_e_114,1,1.224912013,1,10,2,4
13,1,173,f42887_e_276,1,0.953851714,1,9,2,3
13,1,174,f42887_e_127,1,1.01442721,1,10,2,4
13,1,175,f42887_e_252,1,1.045720636,1,9,1,3
13,1,176,f42887_e_181,1,1.784526151,1,9,1,3
13,1,177,f42887_e_214,1,1.694661432,1,10,1,4
13,1,178,f42887_e_295,1,1.624598942,1,10,1,4
13,1,179,f42887_e_071,1,1.68005663,1,9,2,3
13,1,180,f42887_e_247,1,1.306379236,1,10,2,4
13,1,181,f42887_e_283,1,1.850683183,1,9,2,3
13,1,182,f42887_e_208,1,1.513538008,1,10,1,4
13,1,183,f42887_e_057,1,1.804471138,1,10,1,4
13,1,184,f42887_e_218,1,1.384565215,0,10,1,3
13,1,185,f42887_e_298,1,1.724530082,1,10,2,4
13,1,186,f42887_e_260,1,2.374046262,1,10,2,4
13,1,187,f42887_e_234,1,0.863343497,1,9,2,3
13,1,188,f42887_e_162,1,2.164501668,1,9,2,3
13,1,189,f42887_e_052,1,1.414604304,1,9,1,3
13,1,190,f42887_e_029,1,1.354678836,1,10,2,4
13,1,191,f42887_e_045,1,1.484391231,1,9,1,3
13,1,192,f42887_e_065,1,2.140484206,1,10,2,4
13,1,193,f42887_e_044,1,1.456738276,1,9,1,3
13,1,194,f42887_e_228,1,2.304341443,1,10,2,4
13,1,195,f42887_e_148,1,2.050033839,1,10,1,4
13,1,196,f42887_e_205,1,1.629228139,1,9,2,3
13,1,197,f42887_e_293,1,1.465247739,1,9,2,3
13,1,198,f42887_e_291,1,1.784049982,1,10,1,4
13,1,199,f42887_e_118,1,1.333341109,1,10,1,4
13,1,200,f42887_e_085,1,1.583875749,1,10,2,4
13,1,201,f42887_e_281,1,1.482373966,1,9,2,3
13,1,202,f42887_e_249,1,1.059532651,1,10,1,4
13,1,203,f42887_e_235,1,0.993681039,1,9,2,3
13,1,204,f42887_e_125,1,1.15349566,1,10,1,4
13,1,205,f42887_e_058,1,1.284008927,1,10,1,4
13,1,206,f42887_e_216,1,1.223551307,1,9,2,3
13,1,207,f42887_e_135,1,2.524110767,1,9,2,3
13,1,208,f42887_e_282,1,1.32704112,1,9,2,3
13,1,209,f42887_e_280,1,1.19296887,1,9,1,3
13,1,210,f42887_e_002,1,0.942750535,1,9,1,3
13,1,211,f42887_e_108,1,1.199475063,1,9,1,3
13,1,212,f42887_e_032,1,1.303526575,1,9,2,3
13,1,213,f42887_e_042,1,0.703086298,0,10,2,3
13,1,214,f42887_e_113,1,1.533263105,1,10,1,4
13,1,215,f42887_e_121,1,1.153169091,0,10,1,3
13,1,216,f42887_e_233,1,1.673268965,0,10,1,3
13,1,217,f42887_e_189,1,1.613752798,1,10,1,4
13,1,218,f42887_e_187,1,1.923504095,1,10,1,4
13,1,219,f42887_e_256,1,1.192222114,1,10,2,4
13,1,220,f42887_e_053,1,1.703732905,1,10,2,4
13,1,221,f42887_e_286,1,0.999162116,1,10,2,4
13,1,222,f42887_e_027,1,1.386855554,1,9,2,3
13,1,223,f42887_e_158,1,2.023267908,1,9,2,3
13,1,224,f42887_e_274,1,1.933219687,1,10,1,4
13,1,225,f42887_e_024,1,1.403300963,1,10,1,4
13,1,226,f42887_e_099,1,1.613144757,1,9,1,3
13,1,227,f42887_e_160,1,1.332839436,1,10,1,4
13,1,228,f42887_e_225,1,1.498833681,1,10,1,4
13,1,229,f42887_e_048,1,1.348511342,1,10,1,4
13,1,230,f42887_e_093,1,1.803427049,1,10,2,4
13,1,231,f42887_e_076,1,1.162857936,1,9,2,3
13,1,232,f42887_e_017,1,1.952876671,1,10,1,4
13,1,233,f42887_e_219,1,1.792743257,1,9,2,3
13,1,234,f42887_e_112,1,3.053049784,1,9,2,3
13,1,235,f42887_e_134,1,1.442618352,1,9,2,3
13,1,236,f42887_e_169,1,1.142839548,1,9,2,3
13,1,237,f42887_e_288,1,1.312311912,1,9,2,3
13,1,238,f42887_e_271,1,1.222799265,1,9,2,3
13,1,239,f42887_e_091,1,1.13259087,1,9,1,3
13,1,240,f42887_e_146,1,2.062718413,1,9,1,3
13,1,241,f42887_e_014,1,2.459046032,1,9,2,3
13,1,242,f42887_e_284,1,2.562676736,1,10,1,4
13,1,243,f42887_e_257,1,1.433278159,1,9,1,3
13,1,244,f42887_e_055,1,1.641953457,1,10,1,4
13,1,245,f42887_e_261,1,1.704095552,1,10,2,4
13,1,246,f42887_e_031,1,1.762162374,1,9,2,3
13,1,247,f42887_e_188,1,1.349360733,1,9,2,3
13,1,248,f42887_e_194,1,1.832317547,1,9,2,3
13,1,249,f42887_e_097,1,1.784785229,1,9,1,3
13,1,250,f42887_e_231,1,1.482093116,0,10,2,3
13,1,251,f42887_e_240,1,1.232724795,1,9,2,3
13,1,252,f42887_e_038,1,2.462277513,1,9,2,3
13,1,253,f42887_e_000,1,1.592352867,1,9,1,3
13,1,254,f42887_e_105,1,1.6325663,1,10,2,4
13,1,255,f42887_e_104,1,1.301998542,1,9,2,3
13,1,256,f42887_e_213,1,1.081984136,1,9,2,3
13,1,257,f42887_e_186,1,1.381797462,1,10,1,4
13,1,258,f42887_e_106,1,0.951952636,1,9,1,3
13,1,259,f42887_e_210,1,0.881683941,1,9,1,3
13,1,260,f42887_e_174,1,0.94211077,1,10,1,4
13,1,261,f42887_e_153,1,0.961989199,0,10,1,3
13,1,262,f42887_e_054,1,1.032680568,0,10,1,3
13,1,263,f42887_e_019,1,1.137564365,1,9,2,3
13,1,264,f42887_e_063,1,1.071958458,1,9,1,3
13,1,265,f42887_e_069,1,1.361643471,1,9,2,3
13,1,266,f42887_e_199,1,1.757350609,1,9,2,3
13,1,267,f42887_e_246,1,1.131664035,1,9,1,3
13,1,268,f42887_e_255,1,1.101854789,1,10,1,4
13,1,269,f42887_e_229,1,1.09318764,1,9,2,3
13,1,270,f42887_e_086,1,1.531894936,1,10,2,4
13,1,271,f42887_e_204,1,0.901195679,1,9,1,3
13,1,272,f42887_e_140,1,1.021496969,1,9,2,3
13,1,273,f42887_e_036,1,1.407259294,1,10,2,4
13,1,274,f42887_e_034,1,1.201786863,1,10,2,4
13,1,275,f42887_e_173,1,2.297932288,1,10,2,4
13,1,276,f42887_e_005,1,1.071573728,1,9,1,3
13,1,277,f42887_e_285,1,1.151426455,1,9,1,3
13,1,278,f42887_e_068,1,2.611699765,1,10,2,4
13,1,279,f42887_e_237,1,0.942344967,1,9,1,3
13,1,280,f42887_e_270,1,1.15607027,1,10,2,4
13,1,281,f42887_e_209,1,1.045245711,1,10,2,4
13,1,282,f42887_e_179,1,1.721493921,1,9,2,3
13,1,283,f42887_e_117,1,2.261533495,1,10,1,4
13,1,284,f42887_e_167,1,2.151706682,1,10,1,4
13,1,285,f42887_e_133,1,1.34045441,1,9,2,3
13,1,286,f42887_e_126,1,0.990784214,1,9,2,3
13,1,287,f42887_e_107,1,1.44108472,1,9,2,3
13,1,288,f42887_e_267,1,1.341207697,1,9,2,3
13,1,289,f42887_e_145,1,1.551114317,1,10,2,4
13,1,290,f42887_e_294,1,2.587182808,1,10,1,4
13,1,291,f42887_e_200,1,1.170799168,1,10,2,4
13,1,292,f42887_e_223,1,1.541096725,1,10,2,4
13,1,293,f42887_e_098,1,1.211320198,1,10,1,4
13,1,294,f42887_e_147,1,1.591482015,1,9,1,3
13,1,295,f42887_e_021,1,1.330826525,1,10,1,4
13,1,296,f42887_e_119,1,1.410375698,1,9,2,3
13,1,297,f42887_e_129,1,1.560756509,1,10,2,4
13,1,298,f42887_e_273,1,1.330006992,1,9,1,3
13,1,299,f42887_e_164,1,1.790982893,1,10,2,4
13,1,300,f42887_e_138,1,0.970549047,1,9,1,3
13,2,301,f42887_e_176,1,1.314300563,1,10,1,4
13,2,302,f42887_e_204,1,0.881969767,1,9,2,3
13,2,303,f42887_e_015,1,1.042063371,1,9,2,3
13,2,304,f42887_e_264,1,1.411556013,1,9,2,3
13,2,305,f42887_e_029,1,1.432148229,1,9,2,3
13,2,306,f42887_e_036,1,1.321260222,1,9,2,3
13,2,307,f42887_e_116,1,1.452271118,1,9,2,3
13,2,308,f42887_e_047,1,1.18212428,1,9,2,3
13,2,309,f42887_e_038,1,1.12148627,1,9,1,3
13,2,310,f42887_e_268,1,1.511963011,0,10,2,3
13,2,311,f42887_e_276,1,1.271818873,1,9,1,3
13,2,312,f42887_e_107,1,2.916718296,1,9,1,3
13,2,313,f42887_e_075,1,1.230779997,1,9,1,3
13,2,314,f42887_e_051,1,2.131799639,1,9,2,3
13,2,315,f42887_e_290,1,2.021236957,1,9,2,3
13,2,316,f42887_e_004,1,1.462096811,1,10,2,4
13,2,317,f42887_e_010,1,1.411202385,1,9,1,3
13,2,318,f42887_e_040,1,1.89184771,1,9,2,3
13,2,319,f42887_e_139,1,1.171909815,1,9,2,3
13,2,320,f42887_e_220,1,2.471616462,1,9,2,3
13,2,321,f42887_e_248,1,1.621312099,1,10,1,4
13,2,322,f42887_e_200,1,0.891750984,1,10,2,4
13,2,323,f42887_e_135,1,1.161132717,1,9,2,3
13,2,324,f42887_e_189,1,1.14149035,1,9,2,3
13,2,325,f42887_e_192,1,1.181638781,1,9,1,3
13,2,326,f42887_e_115,1,1.126596302,0,10,1,3
13,2,327,f42887_e_287,1,1.010804779,1,9,2,3
13,2,328,f42887_e_188,1,1.138639245,1,9,2,3
13,2,329,f42887_e_086,1,1.255781832,1,9,1,3
13,2,330,f42887_e_171,1,1.116548542,1,9,2,3
13,2,331,f42887_e_202,1,1.101569896,1,9,1,3
13,2,332,f42887_e_291,1,1.181199001,1,9,1,3
13,2,333,f42887_e_283,1,1.201222364,1,10,2,4
13,2,334,f42887_e_271,1,1.096798874,1,10,2,4
13,2,335,f42887_e_228,1,0.817053076,1,9,2,3
13,2,336,f42887_e_009,1,1.060476592,1,9,2,3
13,2,337,f42887_e_209,1,1.191605987,0,10,1,3
13,2,338,f42887_e_133,1,1.421382327,1,9,2,3
13,2,339,f42887_e_289,1,1.587075196,1,10,1,4
13,2,340,f42887_e_162,1,1.266613358,1,9,1,3
13,2,341,f42887_e_262,1,0.910466515,1,10,1,4
13,2,342,f42887_e_092,1,0.937043347,1,9,1,3
13,2,343,f42887_e_194,1,1.155672478,1,9,1,3
13,2,344,f42887_e_002,1,3.247848997,1,10,2,4
13,2,345,f42887_e_082,1,1.476855256,1,10,1,4
13,2,346,f42887_e_205,1,1.226207715,1,9,2,3
13,2,347,f42887_e_042,1,1.476700058,1,9,2,3
13,2,348,f42887_e_225,1,1.076868194,1,9,1,3
13,2,349,f42887_e_267,1,1.506429994,1,10,1,4
13,2,350,f42887_e_222,1,1.096765595,1,9,1,3
13,2,351,f42887_e_001,1,1.506335756,1,10,2,4
13,2,352,f42887_e_257,1,1.256697159,1,10,2,4
13,2,353,f42887_e_017,1,1.126465985,1,9,1,3
13,2,354,f42887_e_217,1,1.35670481,1,10,1,4
13,2,355,f42887_e_014,1,0.946301121,0,10,2,3
13,2,356,f42887_e_243,1,1.146335395,0,9,1,4
13,2,357,f42887_e_140,1,1.376616518,0,10,1,3
13,2,358,f42887_e_191,1,1.226324347,1,9,2,3
13,2,359,f42887_e_030,1,1.746708181,1,10,2,4
13,2,360,f42887_e_297,1,1.186127398,1,9,2,3
13,2,361,f42887_e_201,1,1.426536213,1,10,2,4
13,2,362,f42887_e_068,1,1.205636026,1,10,2,4
13,2,363,f42887_e_210,1,1.14813899,1,10,1,4
13,2,364,f42887_e_131,1,1.196245137,1,9,1,3
13,2,365,f42887_e_273,1,1.637016351,1,9,2,3
13,2,366,f42887_e_094,1,2.03567412,1,10,1,4
13,2,367,f42887_e_229,1,1.586051012,1,10,1,4
13,2,368,f42887_e_089,1,1.276145761,1,9,1,3
13,2,369,f42887_e_104,1,1.206656167,1,9,1,3
13,2,370,f42887_e_236,1,1.075205801,1,9,2,3
13,2,371,f42887_e_055,1,1.015685901,1,10,2,4
13,2,372,f42887_e_102,1,1.285297788,1,9,2,3
13,2,373,f42887_e_265,1,0.915662388,1,10,2,4
13,2,374,f42887_e_137,1,1.122994709,1,10,1,4
13,2,375,f42887_e_195,1,1.126184825,1,9,2,3
13,2,376,f42887_e_207,1,1.245572653,1,10,1,4
13,2,377,f42887_e_128,1,1.905579794,1,10,1,4
13,2,378,f42887_e_251,1,2.095702535,1,10,2,4
13,2,379,f42887_e_071,1,1.685416099,1,10,2,4
13,2,380,f42887_e_280,1,1.255052494,1,10,1,4
13,2,381,f42887_e_298,1,1.68501022,1,10,1,4
13,2,382,f42887_e_064,1,1.294980412,1,9,1,3
13,2,383,f42887_e_260,1,1.70560057,1,9,2,3
13,2,384,f42887_e_058,1,1.374886945,1,9,2,3
13,2,385,f42887_e_041,1,1.915221053,1,10,1,4
13,2,386,f42887_e_259,1,1.225104844,1,9,2,3
13,2,387,f42887_e_266,1,1.115258127,1,10,1,4
13,2,388,f42887_e_296,1,1.244883126,1,10,1,4
13,2,389,f42887_e_182,1,1.034862673,1,9,2,3
13,2,390,f42887_e_073,1,1.25508204,1,9,2,3
13,2,391,f42887_e_295,1,0.894638478,1,10,2,4
13,2,392,f42887_e_084,1,1.175827713,1,10,1,4
13,2,393,f42887_e_152,1,1.151616798,1,9,1,3
13,2,394,f42887_e_149,1,1.004432634,1,10,1,4
13,2,395,f42887_e_185,1,1.364960793,1,10,2,4
13,2,396,f42887_e_154,1,1.045044793,1,9,2,3
13,2,397,f42887_e_153,1,0.854785827,1,10,2,4
13,2,398,f42887_e_299,1,1.14457472,0,9,1,4
13,2,399,f42887_e_019,1,1.704978845,1,10,2,4
13,2,400,f42887_e_070,1,1.004729968,1,10,2,4
13,2,401,f42887_e_085,1,2.047008252,1,10,1,4
13,2,402,f42887_e_167,1,1.634022488,1,9,2,3
13,2,403,f42887_e_045,1,1.104555673,1,9,1,3
13,2,404,f42887_e_223,1,1.274858145,1,10,2,4
13,2,405,f42887_e_087,1,1.366255252,1,10,2,4
13,2,406,f42887_e_208,1,1.044104273,1,9,1,3
13,2,407,f42887_e_050,1,0.938870269,1,9,1,3
13,2,408,f42887_e_021,1,1.273322336,1,10,2,4
13,2,409,f42887_e_156,1,0.875074178,1,9,2,3
13,2,410,f42887_e_114,1,1.134524472,1,10,2,4
13,2,411,f42887_e_284,1,1.134689,1,9,1,3
13,2,412,f42887_e_000,1,0.914403386,1,9,1,3
13,2,413,f42887_e_178,1,1.113870985,1,10,1,4
13,2,414,f42887_e_121,1,1.189589655,1,10,1,4
13,2,415,f42887_e_278,1,0.903481975,1,9,2,3
13,2,416,f42887_e_097,1,0.944581189,1,9,1,3
13,2,417,f42887_e_006,1,1.024228643,1,9,1,3
13,2,418,f42887_e_056,1,1.174056464,1,10,1,4
13,2,419,f42887_e_100,1,1.714058715,1,9,2,3
13,2,420,f42887_e_079,1,1.123729645,1,9,1,3
13,2,421,f42887_e_096,1,1.573472806,1,10,2,4
13,2,422,f42887_e_018,1,0.833340487,1,9,1,3
13,2,423,f42887_e_136,1,1.604541366,1,10,1,4
13,2,424,f42887_e_168,1,0.913649477,1,9,1,3
13,2,425,f42887_e_258,1,1.620377178,1,10,2,4
13,2,426,f42887_e_272,1,0.963877392,1,9,1,3
13,2,427,f42887_e_119,1,0.793075113,1,9,1,3
13,2,428,f42887_e_285,1,0.923421053,1,10,1,4
13,2,429,f42887_e_198,1,1.633982989,1,9,2,3
13,2,430,f42887_e_032,1,1.184159896,0,10,2,3
13,2,431,f42887_e_035,1,1.073661595,1,10,2,4
13,2,432,f42887_e_166,1,1.35405991,1,10,1,4
13,2,433,f42887_e_199,1,1.50457508,1,9,1,3
13,2,434,f42887_e_120,1,0.97344525,1,9,2,3
13,2,435,f42887_e_237,1,1.243192119,1,10,1,4
13,2,436,f42887_e_250,1,1.353789635,1,10,1,4
13,2,437,f42887_e_044,1,1.197580339,1,9,2,3
13,2,438,f42887_e_123,1,1.063742596,1,10,2,4
13,2,439,f42887_e_279,1,1.403555687,1,10,2,4
13,2,440,f42887_e_242,1,0.873369175,1,9,1,3
13,2,441,f42887_e_108,1,1.213327511,1,10,1,4
13,2,442,f42887_e_109,1,1.223293784,1,9,2,3
13,2,443,f42887_e_105,1,2.123053491,1,9,2,3
13,2,444,f42887_e_230,1,1.353114414,1,9,1,3
13,2,445,f42887_e_294,1,1.283351435,1,10,1,4
13,2,446,f42887_e_235,1,1.283705996,1,10,1,4
13,2,447,f42887_e_099,1,1.473898404,1,10,1,4
13,2,448,f42887_e_091,1,0.913126033,1,9,2,3
13,2,449,f42887_e_066,1,1.133156302,1,9,2,3
13,2,450,f42887_e_145,1,1.393039533,1,9,1,3
13,2,451,f42887_e_052,1,0.923567543,1,9,2,3
13,2,452,f42887_e_212,1,1.003154659,1,9,1,3
13,2,453,f42887_e_007,1,1.593184219,1,10,1,4
13,2,454,f42887_e_151,1,0.913244842,1,9,1,3
13,2,455,f42887_e_239,1,1.232953082,1,9,1,3
13,2,456,f42887_e_183,1,1.179820878,1,9,1,3
13,2,457,f42887_e_159,1,0.912934135,0,10,1,3
13,2,458,f42887_e_263,1,1.622947123,1,9,2,3
13,2,459,f42887_e_046,1,1.11290745,1,10,2,4
13,2,460,f42887_e_240,1,0.91187885,1,9,1,3
13,2,461,f42887_e_146,1,1.493167859,0,10,1,3
13,2,462,f42887_e_179,1,2.192713523,1,10,2,4
13,2,463,f42887_e_127,1,1.502748469,1,9,2,3
13,2,464,f42887_e_077,1,1.482738791,1,10,2,4
13,2,465,f42887_e_226,1,1.168774438,1,9,1,3
13,2,466,f42887_e_122,1,1.11252583,1,9,2,3
13,2,467,f42887_e_098,1,1.042960659,1,9,1,3
13,2,468,f42887_e_067,1,1.203125797,1,10,1,4
13,2,469,f42887_e_155,1,2.052888055,1,10,2,4
13,2,470,f42887_e_232,1,0.921693968,1,9,1,3
13,2,471,f42887_e_293,1,1.20161487,1,10,2,4
13,2,472,f42887_e_203,1,1.242722481,1,10,1,4
13,2,473,f42887_e_080,1,1.212931585,1,10,1,4
13,2,474,f42887_e_269,1,1.052749962,1,10,1,4
13,2,475,f42887_e_113,1,1.071249025,1,9,1,3
13,2,476,f42887_e_214,1,1.422456896,1,9,2,3
13,2,477,f42887_e_062,1,1.753052023,1,9,2,3
13,2,478,f42887_e_241,1,1.092965884,1,10,1,4
13,2,479,f42887_e_124,1,1.462967041,1,9,2,3
13,2,480,f42887_e_216,1,1.102838851,1,10,2,4
13,2,481,f42887_e_148,1,1.582734001,1,9,2,3
13,2,482,f42887_e_165,1,1.402592152,1,9,2,3
13,2,483,f42887_e_025,1,1.331671251,1,9,1,3
13,2,484,f42887_e_292,1,1.382129941,1,10,2,4
13,2,485,f42887_e_117,1,1.352210283,1,9,1,3
13,2,486,f42887_e_053,1,0.961773974,1,9,2,3
13,2,487,f42887_e_286,1,0.891495327,0,9,1,4
13,2,488,f42887_e_144,1,0.98176437,1,9,2,3
13,2,489,f42887_e_172,1,2.059377764,1,10,1,4
13,2,490,f42887_e_275,1,1.231650537,1,10,1,4
13,2,491,f42887_e_088,1,1.87061293,1,10,2,4
13,2,492,f42887_e_288,1,2.472441283,1,10,1,4
13,2,493,f42887_e_170,1,1.921333809,1,10,2,4
13,2,494,f42887_e_112,1,2.22277345,1,10,2,4
13,2,495,f42887_e_163,1,1.942256326,1,10,1,4
13,2,496,f42887_e_016,1,1.011924445,1,9,1,3
13,2,497,f42887_e_110,1,1.681857738,1,10,2,4
13,2,498,f42887_e_005,1,2.171841391,1,10,2,4
13,2,499,f42887_e_076,1,0.811589105,1,9,2,3
13,2,500,f42887_e_031,1,1.682726101,1,10,2,4
13,2,501,f42887_e_157,1,2.607846869,1,9,2,3
13,2,502,f42887_e_252,1,1.321355082,1,10,2,4
13,2,503,f42887_e_034,1,0.951582213,1,9,2,3
13,2,504,f42887_e_174,1,1.481871049,1,9,2,3
13,2,505,f42887_e_059,1,1.281417833,1,9,1,3
13,2,506,f42887_e_160,1,1.090456587,1,9,2,3
13,2,507,f42887_e_090,1,1.631898543,1,10,2,4
13,2,508,f42887_e_238,1,1.411824421,1,10,1,4
13,2,509,f42887_e_211,1,1.250987483,1,9,2,3
13,2,510,f42887_e_011,1,1.292309386,1,10,2,4
13,2,511,f42887_e_206,1,1.131733393,1,10,2,4
13,2,512,f42887_e_095,1,1.250941142,1,10,2,4
13,2,513,f42887_e_177,1,1.651470308,1,10,1,4
13,2,514,f42887_e_012,1,1.271036973,1,10,1,4
13,2,515,f42887_e_261,1,1.171407831,1,10,1,4
13,2,516,f42887_e_143,1,1.272007661,1,10,1,4
13,2,517,f42887_e_028,1,0.860941502,1,10,1,4
13,2,518,f42887_e_118,1,0.861015836,1,9,1,3
13,2,519,f42887_e_027,1,1.351112388,1,9,2,3
13,2,520,f42887_e_270,1,1.130733468,1,10,2,4
13,2,521,f42887_e_233,1,1.12137026,1,9,1,3
13,2,522,f42887_e_039,1,2.221445402,1,9,2,3
13,2,523,f42887_e_101,1,1.230854952,1,10,2,4
13,2,524,f42887_e_150,1,1.150603811,1,9,1,3
13,2,525,f42887_e_224,1,1.781539753,1,9,2,3
13,2,526,f42887_e_008,1,1.670580522,1,9,1,3
13,2,527,f42887_e_193,1,1.20139498,1,9,2,3
13,2,528,f42887_e_181,1,1.751985852,1,9,2,3
13,2,529,f42887_e_253,1,2.16160702,1,10,1,4
13,2,530,f42887_e_142,1,0.990516116,1,9,2,3
13,2,531,f42887_e_184,1,1.250515046,1,9,1,3
13,2,532,f42887_e_022,1,1.51052735,1,10,2,4
13,2,533,f42887_e_130,1,2.091338947,1,10,1,4
13,2,534,f42887_e_255,1,2.330999762,1,10,1,4
13,2,535,f42887_e_103,1,1.179472849,1,10,1,4
13,2,536,f42887_e_247,1,0.930192234,1,9,1,3
13,2,537,f42887_e_033,1,1.219741332,1,10,1,4
13,2,538,f42887_e_106,1,1.490625906,1,10,1,4
13,2,539,f42887_e_274,1,1.380816199,1,10,2,4
13,2,540,f42887_e_231,1,2.380633321,1,10,1,4
13,2,541,f42887_e_249,1,1.220350617,1,9,2,3
13,2,542,f42887_e_244,1,1.110046703,1,9,1,3
13,2,543,f42887_e_132,1,1.14964463,1,9,2,3
13,2,544,f42887_e_218,1,0.910586257,1,9,1,3
13,2,545,f42887_e_169,1,1.870277341,1,9,2,3
13,2,546,f42887_e_161,1,1.420412883,1,9,2,3
13,2,547,f42887_e_256,1,1.840975366,1,9,1,3
13,2,548,f42887_e_049,1,1.243284491,1,9,1,3
13,2,549,f42887_e_060,1,1.500175725,1,10,1,4
13,2,550,f42887_e_281,1,1.459650652,0,9,1,4
13,2,551,f42887_e_134,1,1.400157811,1,10,2,4
13,2,552,f42887_e_277,1,1.259750426,1,10,2,4
13,2,553,f42887_e_026,1,1.709987485,1,10,2,4
13,2,554,f42887_e_227,1,1.349694456,1,9,2,3
13,2,555,f42887_e_186,1,1.339526331,1,10,2,4
13,2,556,f42887_e_111,1,1.980390291,1,10,1,4
13,2,557,f42887_e_020,1,1.598495791,1,9,1,3
13,2,558,f42887_e_063,1,1.359288751,1,10,1,4
13,2,559,f42887_e_126,1,2.200036451,1,10,2,4
13,2,560,f42887_e_180,1,1.129623444,1,9,1,3
13,2,561,f42887_e_197,1,1.160465582,1,9,2,3
13,2,562,f42887_e_282,1,2.130576404,1,10,2,4
13,2,563,f42887_e_083,1,1.309931066,1,9,2,3
13,2,564,f42887_e_024,1,1.408964296,1,9,1,3
13,2,565,f42887_e_013,1,1.22878979,1,9,2,3
13,2,566,f42887_e_072,1,1.480215187,1,10,1,4
13,2,567,f42887_e_023,1,1.538914309,1,9,2,3
13,2,568,f42887_e_061,1,2.007551837,1,10,1,4
13,2,569,f42887_e_048,1,1.459306043,1,9,2,3
13,2,570,f42887_e_081,1,2.05984367,1,10,2,4
13,2,571,f42887_e_221,1,2.020152125,1,10,2,4
13,2,572,f42887_e_196,1,1.189362922,1,9,1,3
13,2,573,f42887_e_043,1,1.389589095,1,9,2,3
13,2,574,f42887_e_213,1,1.459178526,1,10,2,4
13,2,575,f42887_e_074,1,1.589405034,1,9,2,3
13,2,576,f42887_e_187,1,1.369708489,1,9,2,3
13,2,577,f42887_e_054,1,1.188746484,1,9,2,3
13,2,578,f42887_e_190,1,1.009644058,1,10,2,4
13,2,579,f42887_e_003,1,1.709200919,1,9,2,3
13,2,580,f42887_e_234,1,1.309437169,1,10,1,4
13,2,581,f42887_e_215,1,1.859763676,1,10,2,4
13,2,582,f42887_e_129,1,1.839535662,1,10,1,4
13,2,583,f42887_e_219,1,2.219580536,1,10,2,4
13,2,584,f42887_e_057,1,1.058519353,1,9,2,3
13,2,585,f42887_e_093,1,2.149306242,1,10,1,4
13,2,586,f42887_e_147,1,1.22953188,1,10,1,4
13,2,587,f42887_e_037,1,1.749451053,1,10,2,4
13,2,588,f42887_e_125,1,1.298628969,1,9,2,3
13,2,589,f42887_e_173,1,1.929484978,1,9,1,3
13,2,590,f42887_e_141,1,1.128279222,1,9,1,3
13,2,591,f42887_e_246,1,1.228756822,1,10,1,4
13,2,592,f42887_e_175,1,1.717720957,1,10,2,4
13,2,593,f42887_e_065,1,1.723468577,1,10,1,4
13,2,594,f42887_e_069,1,1.92879514,1,10,2,4
13,2,595,f42887_e_164,1,1.238663069,1,9,1,3
13,2,596,f42887_e_138,1,1.498584866,1,10,2,4
13,2,597,f42887_e_245,1,1.48856883,1,10,1,4
13,2,598,f42887_e_158,1,1.958838272,1,10,2,4
13,2,599,f42887_e_254,1,0.989052464,1,9,2,3
13,2,600,f42887_e_078,1,1.228283141,1,9,1,3
15,1,1,f42887_e_006,1,1.329491945,1,9,1,3
15,1,2,f42887_e_124,1,1.427480776,1,10,2,4
15,1,3,f42887_e_056,1,1.187990709,1,9,1,3
15,1,4,f42887_e_291,1,1.547657658,1,9,2,3
15,1,5,f42887_e_126,1,1.218194638,1,9,1,3
15,1,6,f42887_e_294,1,0.948003013,1,10,1,4
15,1,7,f42887_e_210,1,1.178185233,1,10,2,4
15,1,8,f42887_e_044,1,1.278022446,1,9,2,3
15,1,9,f42887_e_032,1,1.257999393,1,10,1,4
15,1,10,f42887_e_072,1,1.148160762,1,10,1,4
15,1,11,f42887_e_279,1,1.197983108,1,10,1,4
15,1,12,f42887_e_122,1,1.147962954,1,9,1,3
15,1,13,f42887_e_048,1,1.307952367,1,9,2,3
15,1,14,f42887_e_074,1,0.907406405,1,10,2,4
15,1,15,f42887_e_208,1,1.137894667,1,9,2,3
15,1,16,f42887_e_274,1,1.307402175,1,9,2,3
15,1,17,f42887_e_019,1,1.738375999,1,9,1,3
15,1,18,f42887_e_282,1,1.387796074,1,9,1,3
15,1,19,f42887_e_188,1,1.266941171,1,10,1,4
15,1,20,f42887_e_167,1,1.877787191,1,9,1,3
15,1,21,f42887_e_276,1,1.317624106,1,9,2,3
15,1,22,f42887_e_180,1,1.557568881,1,9,2,3
15,1,23,f42887_e_070,1,1.249327267,1,10,2,4
15,1,24,f42887_e_215,1,1.367370563,1,10,1,4
15,1,25,f42887_e_026,1,1.387571519,1,10,2,4
15,1,26,f42887_e_183,1,1.607784977,1,9,2,3
15,1,27,f42887_e_283,1,1.337653068,1,10,1,4
15,1,28,f42887_e_038,1,1.336970382,1,9,1,3
15,1,29,f42887_e_166,1,1.768569664,1,9,1,3
15,1,30,f42887_e_246,1,1.627394997,1,10,2,4
15,1,31,f42887_e_024,1,1.074003093,1,10,1,4
15,1,32,f42887_e_257,1,1.226852457,1,9,2,3
15,1,33,f42887_e_092,1,1.009044726,1,10,1,4
15,1,34,f42887_e_049,1,1.486524817,1,10,2,4
15,1,35,f42887_e_171,1,1.287110092,1,10,2,4
15,1,36,f42887_e_136,1,1.076906449,1,10,2,4
15,1,37,f42887_e_029,1,1.176745217,1,9,1,3
15,1,38,f42887_e_082,1,1.217068129,1,10,1,4
15,1,39,f42887_e_152,1,1.456959099,1,9,2,3
15,1,40,f42887_e_045,1,1.347332582,1,10,1,4
15,1,41,f42887_e_120,1,1.507431784,1,10,2,4
15,1,42,f42887_e_199,1,1.236529794,1,9,2,3
15,1,43,f42887_e_197,1,1.606925944,1,9,1,3
15,1,44,f42887_e_221,1,1.547011362,1,9,1,3
15,1,45,f42887_e_201,1,1.077227731,1,10,2,4
15,1,46,f42887_e_106,1,1.307040461,1,10,1,4
15,1,47,f42887_e_143,1,1.337122781,1,9,2,3
15,1,48,f42887_e_011,1,1.566740502,1,9,1,3
15,1,49,f42887_e_131,1,1.617090336,1,9,2,3
15,1,50,f42887_e_059,1,1.096418499,1,10,1,4
15,1,51,f42887_e_137,1,1.246852494,1,10,1,4
15,1,52,f42887_e_005,1,1.147652869,1,10,1,4
15,1,53,f42887_e_087,1,1.326687181,1,10,1,4
15,1,54,f42887_e_157,1,1.205944868,1,10,1,4
15,1,55,f42887_e_193,1,1.486504912,1,9,2,3
15,1,56,f42887_e_001,1,1.276643079,1,10,1,4
15,1,57,f42887_e_185,1,1.316127796,1,10,2,4
15,1,58,f42887_e_273,1,1.8267752,1,10,2,4
15,1,59,f42887_e_096,1,1.576648615,1,9,2,3
15,1,60,f42887_e_278,1,2.276793301,1,9,1,3
15,1,61,f42887_e_252,1,2.056021565,1,10,1,4
15,1,62,f42887_e_123,1,1.646550308,1,9,2,3
15,1,63,f42887_e_213,1,1.435640343,1,10,2,4
15,1,64,f42887_e_097,1,1.366141108,1,9,2,3
15,1,65,f42887_e_299,1,2.247052479,1,9,2,3
15,1,66,f42887_e_195,1,2.556691809,1,9,1,3
15,1,67,f42887_e_099,1,1.866549164,1,10,1,4
15,1,68,f42887_e_090,1,1.615959162,1,9,1,3
15,1,69,f42887_e_148,1,1.725947393,1,10,2,4
15,1,70,f42887_e_163,1,1.515562738,1,9,2,3
15,1,71,f42887_e_285,1,1.875897755,1,9,2,3
15,1,72,f42887_e_033,1,1.106193807,1,10,1,4
15,1,73,f42887_e_174,1,0.99593188,1,9,1,3
15,1,74,f42887_e_065,1,1.105978893,1,10,2,4
15,1,75,f42887_e_253,1,2.105969874,1,9,1,3
15,1,76,f42887_e_245,1,1.536451977,1,10,2,4
15,1,77,f42887_e_155,1,1.325820684,1,9,2,3
15,1,78,f42887_e_222,1,1.385158638,1,10,2,4
15,1,79,f42887_e_198,1,1.235897493,1,10,1,4
15,1,80,f42887_e_037,1,1.755667066,1,9,1,3
15,1,81,f42887_e_234,1,1.355779219,1,9,1,3
15,1,82,f42887_e_025,1,1.655883348,1,10,1,4
15,1,83,f42887_e_138,1,1.305690019,1,9,2,3
15,1,84,f42887_e_054,1,1.415616669,1,10,1,4
15,1,85,f42887_e_112,1,1.495574208,1,9,2,3
15,1,86,f42887_e_190,1,1.655795641,1,9,1,3
15,1,87,f42887_e_231,1,1.20545999,1,10,2,4
15,1,88,f42887_e_158,1,1.74555026,1,10,2,4
15,1,89,f42887_e_233,1,1.765771742,1,9,2,3
15,1,90,f42887_e_261,1,1.435511893,1,10,1,4
15,1,91,f42887_e_170,1,1.798490566,1,10,2,4
15,1,92,f42887_e_050,1,1.604588641,1,10,2,4
15,1,93,f42887_e_296,1,2.455433242,1,10,2,4
15,1,94,f42887_e_235,1,0.804440036,1,10,1,4
15,1,95,f42887_e_088,1,1.445259209,1,9,1,3
15,1,96,f42887_e_022,1,1.53517027,1,10,2,4
15,1,97,f42887_e_053,1,1.535168715,1,10,1,4
15,1,98,f42887_e_254,1,1.184873994,1,9,2,3
15,1,99,f42887_e_035,1,1.465304344,1,10,1,4
15,1,100,f42887_e_219,1,1.465166874,1,9,1,3
15,1,101,f42887_e_181,1,1.910347084,1,9,1,3
15,1,102,f42887_e_159,1,1.074104174,1,10,1,4
15,1,103,f42887_e_223,1,1.173364759,1,9,1,3
15,1,104,f42887_e_084,1,1.484852783,1,10,2,4
15,1,105,f42887_e_151,1,1.335130087,1,9,2,3
15,1,106,f42887_e_220,1,1.284805757,1,9,1,3
15,1,107,f42887_e_140,1,1.262321304,1,9,2,3
15,1,108,f42887_e_207,1,1.714675465,1,9,1,3
15,1,109,f42887_e_258,1,1.334144469,1,10,2,4
15,1,110,f42887_e_177,1,1.408988867,1,9,1,3
15,1,111,f42887_e_268,1,1.27472534,1,10,2,4
15,1,112,f42887_e_149,1,1.144512205,1,9,2,3
15,1,113,f42887_e_284,1,1.464730204,1,9,2,3
15,1,114,f42887_e_211,1,1.884387312,1,10,1,4
15,1,115,f42887_e_004,1,1.193755746,1,9,2,3
15,1,116,f42887_e_073,1,1.434658458,1,9,2,3
15,1,117,f42887_e_248,1,1.864790355,1,10,1,4
15,1,118,f42887_e_100,1,1.264664206,1,10,2,4
15,1,119,f42887_e_145,1,1.22450178,1,10,1,4
15,1,120,f42887_e_027,1,1.253934072,1,9,1,3
15,1,121,f42887_e_186,1,1.613907685,1,10,2,4
15,1,122,f42887_e_077,1,1.143937443,1,10,2,4
15,1,123,f42887_e_127,1,0.963642573,1,9,1,3
15,1,124,f42887_e_010,1,1.243935764,1,9,1,3
15,1,125,f42887_e_288,1,1.354287886,1,10,2,4
15,1,126,f42887_e_142,1,1.104071106,1,9,2,3
15,1,127,f42887_e_109,1,1.034170968,1,10,2,4
15,1,128,f42887_e_212,1,1.834046498,1,9,1,3
15,1,129,f42887_e_147,1,1.273784198,1,9,1,3
15,1,130,f42887_e_039,1,1.443432598,1,10,1,4
15,1,131,f42887_e_250,1,0.993745731,1,9,2,3
15,1,132,f42887_e_298,1,1.554327137,1,10,2,4
15,1,133,f42887_e_116,1,1.313773387,1,9,1,3
15,1,134,f42887_e_214,1,1.333690693,1,9,2,3
15,1,135,f42887_e_128,1,1.483860634,1,10,1,4
15,1,136,f42887_e_040,1,1.323372658,1,9,1,3
15,1,137,f42887_e_224,1,0.973598582,1,10,1,4
15,1,138,f42887_e_110,1,1.313964974,1,9,2,3
15,1,139,f42887_e_270,1,1.328741147,1,9,2,3
15,1,140,f42887_e_030,1,1.393386318,1,9,2,3
15,1,141,f42887_e_265,1,1.193514707,1,9,2,3
15,1,142,f42887_e_041,1,1.243990814,1,9,2,3
15,1,143,f42887_e_200,1,0.943804265,1,9,2,3
15,1,144,f42887_e_103,1,1.263667703,1,10,2,4
15,1,145,f42887_e_063,1,1.303607129,1,9,2,3
15,1,146,f42887_e_002,1,1.593492749,1,10,1,4
15,1,147,f42887_e_105,1,2.633395475,1,9,2,3
15,1,148,f42887_e_236,1,1.803453175,1,9,2,3
15,1,149,f42887_e_009,1,2.403946637,1,10,1,4
15,1,150,f42887_e_071,1,1.172872106,1,10,2,4
15,1,151,f42887_e_144,1,1.473074516,1,10,2,4
15,1,152,f42887_e_204,1,1.503331629,1,9,1,3
15,1,153,f42887_e_191,1,1.523187665,1,9,1,3
15,1,154,f42887_e_086,1,1.343274414,1,10,1,4
15,1,155,f42887_e_104,1,1.083334577,1,10,1,4
15,1,156,f42887_e_079,1,1.573539364,1,9,1,3
15,1,157,f42887_e_083,1,1.693562293,1,10,2,4
15,1,158,f42887_e_226,1,1.332827617,1,9,2,3
15,1,159,f42887_e_202,1,1.143245738,1,10,1,4
15,1,160,f42887_e_078,1,1.643450388,1,10,1,4
15,1,161,f42887_e_230,1,3.8531592,1,9,2,3
15,1,162,f42887_e_289,1,1.29328785,1,9,1,3
15,1,163,f42887_e_135,1,1.553063158,1,9,2,3
15,1,164,f42887_e_094,1,1.282897348,1,9,1,3
15,1,165,f42887_e_187,1,1.803466238,1,9,2,3
15,1,166,f42887_e_133,1,1.115583452,1,10,1,4
15,1,167,f42887_e_264,1,1.242351125,1,9,1,3
15,1,168,f42887_e_013,1,1.512386307,1,10,1,4
15,1,169,f42887_e_130,1,2.062705972,1,9,2,3
15,1,170,f42887_e_247,1,1.332575693,1,10,2,4
15,1,171,f42887_e_165,1,1.182162847,1,10,1,4
15,1,172,f42887_e_117,1,1.38487841,1,10,2,4
15,1,173,f42887_e_132,1,1.361544878,0,9,1,4
15,1,174,f42887_e_153,1,1.562511274,1,10,1,4
15,1,175,f42887_e_251,1,1.657019187,1,10,2,4
15,1,176,f42887_e_017,1,1.382424786,1,10,2,4
15,1,177,f42887_e_176,1,1.28283079,1,9,1,3
15,1,178,f42887_e_098,1,1.21264016,1,9,1,3
15,1,179,f42887_e_297,1,1.432296585,1,10,2,4
15,1,180,f42887_e_015,1,1.572142581,1,10,1,4
15,1,181,f42887_e_023,1,1.692073759,1,9,1,3
15,1,182,f42887_e_281,1,1.452227265,1,10,2,4
15,1,183,f42887_e_000,1,1.341757577,1,10,2,4
15,1,184,f42887_e_014,1,1.242351436,1,10,1,4
15,1,185,f42887_e_139,1,1.38219992,1,10,1,4
15,1,186,f42887_e_205,1,1.972115647,1,10,2,4
15,1,187,f42887_e_241,1,2.168000002,1,10,2,4
15,1,188,f42887_e_075,1,1.702486343,1,10,2,4
15,1,189,f42887_e_255,1,1.761970165,1,9,1,3
15,1,190,f42887_e_182,1,1.421992857,1,9,1,3
15,1,191,f42887_e_102,1,1.621970214,1,10,2,4
15,1,192,f42887_e_060,1,1.372614022,1,9,2,3
15,1,193,f42887_e_101,1,1.432262684,1,9,2,3
15,1,194,f42887_e_125,1,1.621686255,1,9,2,3
15,1,195,f42887_e_043,1,1.081271592,1,10,2,4
15,1,196,f42887_e_259,1,1.171769234,1,9,1,3
15,1,197,f42887_e_108,1,1.141448363,1,9,1,3
15,1,198,f42887_e_179,1,1.090265622,1,10,1,4
15,1,199,f42887_e_168,1,1.481362223,1,9,1,3
15,1,200,f42887_e_051,1,1.391346038,1,10,1,4
15,1,201,f42887_e_066,1,1.411450266,1,10,2,4
15,1,202,f42887_e_089,1,1.391399533,1,9,2,3
15,1,203,f42887_e_118,1,1.631364214,1,9,1,3
15,1,204,f42887_e_156,1,1.22106005,1,10,2,4
15,1,205,f42887_e_160,1,1.431105695,1,9,1,3
15,1,206,f42887_e_067,1,1.351359648,1,10,1,4
15,1,207,f42887_e_229,1,1.210926138,1,9,1,3
15,1,208,f42887_e_266,1,1.841620418,1,10,1,4
15,1,209,f42887_e_119,1,1.271250331,1,10,2,4
15,1,210,f42887_e_154,1,1.521695399,1,9,2,3
15,1,211,f42887_e_036,1,1.641213544,1,9,2,3
15,1,212,f42887_e_113,1,1.381270908,1,9,1,3
15,1,213,f42887_e_260,1,1.587545455,1,10,1,4
15,1,214,f42887_e_216,1,1.351323259,0,10,1,3
15,1,215,f42887_e_239,1,1.581104576,1,9,2,3
15,1,216,f42887_e_028,1,1.147298308,1,10,1,4
15,1,217,f42887_e_194,1,1.381424551,1,10,1,4
15,1,218,f42887_e_134,1,1.210307834,1,9,1,3
15,1,219,f42887_e_175,1,1.590165785,1,9,1,3
15,1,220,f42887_e_016,1,1.77156135,1,10,2,4
15,1,221,f42887_e_162,1,1.471138116,1,9,1,3
15,1,222,f42887_e_146,1,1.30114293,1,10,1,4
15,1,223,f42887_e_115,1,1.231239371,1,9,2,3
15,1,224,f42887_e_169,1,1.141404198,1,9,2,3
15,1,225,f42887_e_225,1,1.330359998,1,9,2,3
15,1,226,f42887_e_287,1,1.382038813,1,9,1,3
15,1,227,f42887_e_203,1,1.420560617,1,10,2,4
15,1,228,f42887_e_020,1,1.340629825,1,9,2,3
15,1,229,f42887_e_052,1,1.241158991,1,10,2,4
15,1,230,f42887_e_271,1,1.250748932,1,10,1,4
15,1,231,f42887_e_069,1,1.821023537,1,9,1,3
15,1,232,f42887_e_012,1,1.995285894,1,10,2,4
15,1,233,f42887_e_080,1,1.250627635,1,9,1,3
15,1,234,f42887_e_150,1,1.260175589,1,10,2,4
15,1,235,f42887_e_085,1,1.480726813,1,10,2,4
15,1,236,f42887_e_046,1,1.100423794,1,10,1,4
15,1,237,f42887_e_047,1,0.910261243,1,10,2,4
15,1,238,f42887_e_178,1,0.960044401,0,9,2,4
15,1,239,f42887_e_008,1,1.490572411,1,10,1,4
15,1,240,f42887_e_121,1,1.309722062,1,9,1,3
15,1,241,f42887_e_295,1,1.749721639,1,10,1,4
15,1,242,f42887_e_232,1,1.250300444,1,9,1,3
15,1,243,f42887_e_243,1,1.750579738,1,9,2,3
15,1,244,f42887_e_209,1,1.730639416,1,9,2,3
15,1,245,f42887_e_275,1,1.549852204,1,10,1,4
15,1,246,f42887_e_192,1,1.674934779,1,9,2,3
15,1,247,f42887_e_272,1,1.870347009,1,9,2,3
15,1,248,f42887_e_111,1,2.390133377,1,9,1,3
15,1,249,f42887_e_227,1,1.505159484,1,9,1,3
15,1,250,f42887_e_189,1,1.210086388,1,10,1,4
15,1,251,f42887_e_173,1,2.560727273,1,10,1,4
15,1,252,f42887_e_238,1,2.199378647,1,9,1,3
15,1,253,f42887_e_237,1,2.290565817,1,10,2,4
15,1,254,f42887_e_114,1,2.020045135,1,10,1,4
15,1,255,f42887_e_277,1,2.400063883,1,9,2,3
15,1,256,f42887_e_081,1,1.650308344,1,9,1,3
15,1,257,f42887_e_218,1,1.490222826,1,9,1,3
15,1,258,f42887_e_256,1,1.849760391,1,10,1,4
15,1,259,f42887_e_240,1,1.299607433,1,10,2,4
15,1,260,f42887_e_242,1,1.239869509,1,9,1,3
15,1,261,f42887_e_267,1,1.518969011,1,10,2,4
15,1,262,f42887_e_018,1,1.209051008,0,10,2,3
15,1,263,f42887_e_093,1,1.399427229,1,10,2,4
15,1,264,f42887_e_280,1,1.778260375,1,9,1,3
15,1,265,f42887_e_206,1,1.1194858,1,10,1,4
15,1,266,f42887_e_061,1,1.629400444,1,10,1,4
15,1,267,f42887_e_217,1,1.800021087,1,9,1,3
15,1,268,f42887_e_003,1,3.66829858,1,10,1,4
15,1,269,f42887_e_091,1,1.359619363,1,9,1,3
15,1,270,f42887_e_141,1,2.949931327,1,9,2,3
15,1,271,f42887_e_021,1,1.359509263,1,9,2,3
15,1,272,f42887_e_249,1,1.049055686,1,10,2,4
15,1,273,f42887_e_172,1,1.439451563,1,9,2,3
15,1,274,f42887_e_129,1,3.630134447,0,9,2,4
15,1,275,f42887_e_095,1,1.718599273,1,10,1,4
15,1,276,f42887_e_062,1,1.397235171,1,9,1,3
15,1,277,f42887_e_228,1,1.108380888,1,10,1,4
15,1,278,f42887_e_042,1,1.579088865,1,9,1,3
15,1,279,f42887_e_263,1,1.099458704,1,10,1,4
15,1,280,f42887_e_286,1,1.098728432,1,10,1,4
15,1,281,f42887_e_244,1,1.058769101,1,10,1,4
15,1,282,f42887_e_262,1,0.949143518,1,10,1,4
15,1,283,f42887_e_058,1,1.369028291,1,9,1,3
15,1,284,f42887_e_293,1,1.468668319,1,9,1,3
15,1,285,f42887_e_164,1,0.998333875,1,10,1,4
15,1,286,f42887_e_269,1,1.599025455,1,9,2,3
15,1,287,f42887_e_292,1,1.168553615,1,9,1,3
15,1,288,f42887_e_068,1,1.418672113,1,10,2,4
15,1,289,f42887_e_034,1,0.000858722,0,9,2,4
15,1,290,f42887_e_076,1,2.029535239,1,10,2,4
15,1,291,f42887_e_196,1,1.278974162,1,10,2,4
15,1,292,f42887_e_007,1,1.568559027,1,9,2,3
15,1,293,f42887_e_064,1,1.88905321,1,10,1,4
15,1,294,f42887_e_161,1,1.048521978,1,10,1,4
15,1,295,f42887_e_031,1,1.56856307,1,9,1,3
15,1,296,f42887_e_107,1,1.919001171,1,9,2,3
15,1,297,f42887_e_057,1,1.358064893,1,10,1,4
15,1,298,f42887_e_055,1,1.956935772,1,10,2,4
15,1,299,f42887_e_290,1,1.518865753,1,10,2,4
15,1,300,f42887_e_184,1,1.838478822,1,9,2,3
15,2,301,f42887_e_168,1,1.247035995,1,10,1,4
15,2,302,f42887_e_090,1,1.368024013,1,9,2,3
15,2,303,f42887_e_199,1,1.588073254,1,10,1,4
15,2,304,f42887_e_145,1,1.959125342,1,10,2,4
15,2,305,f42887_e_229,1,1.69848167,1,10,2,4
15,2,306,f42887_e_084,1,2.139744604,1,10,2,4
15,2,307,f42887_e_169,1,2.24814913,1,9,1,3
15,2,308,f42887_e_198,1,1.44776073,1,9,2,3
15,2,309,f42887_e_060,1,1.988295134,1,10,1,4
15,2,310,f42887_e_244,1,1.068262004,1,9,1,3
15,2,311,f42887_e_155,1,3.039028142,1,9,2,3
15,2,312,f42887_e_009,1,1.508046357,1,9,2,3
15,2,313,f42887_e_146,1,0.987818965,1,9,1,3
15,2,314,f42887_e_020,1,1.491239856,1,9,2,3
15,2,315,f42887_e_210,1,1.287645043,1,10,2,4
15,2,316,f42887_e_194,1,1.248208534,1,9,1,3
15,2,317,f42887_e_117,1,1.407739817,1,9,1,3
15,2,318,f42887_e_082,1,1.568109294,1,10,2,4
15,2,319,f42887_e_214,1,3.918632303,1,9,1,3
15,2,320,f42887_e_166,1,1.29846444,1,10,1,4
15,2,321,f42887_e_055,1,1.347819948,1,9,1,3
15,2,322,f42887_e_298,1,1.216960206,1,10,1,4
15,2,323,f42887_e_233,1,1.07764263,1,10,2,4
15,2,324,f42887_e_183,1,1.118229907,1,9,1,3
15,2,325,f42887_e_206,1,1.057344637,1,10,2,4
15,2,326,f42887_e_228,1,1.807347125,1,9,2,3
15,2,327,f42887_e_144,1,1.117201992,1,9,1,3
15,2,328,f42887_e_087,1,1.837699409,1,9,2,3
15,2,329,f42887_e_226,1,1.207912992,1,10,1,4
15,2,330,f42887_e_285,1,1.307037662,1,10,2,4
15,2,331,f42887_e_136,1,1.047271685,0,10,2,3
15,2,332,f42887_e_290,1,1.437363074,1,10,2,4
15,2,333,f42887_e_238,1,1.447680176,1,10,1,4
15,2,334,f42887_e_083,1,2.187667561,1,9,2,3
15,2,335,f42887_e_222,1,4.017929277,1,9,1,3
15,2,336,f42887_e_071,1,1.197509427,1,9,2,3
15,2,337,f42887_e_189,1,1.136949793,1,10,1,4
15,2,338,f42887_e_085,1,1.296750729,1,9,2,3
15,2,339,f42887_e_047,1,1.42739649,1,9,1,3
15,2,340,f42887_e_284,1,1.246798066,1,9,2,3
15,2,341,f42887_e_208,1,1.577724739,1,10,2,4
15,2,342,f42887_e_069,1,3.107720285,1,9,2,3
15,2,343,f42887_e_140,1,1.307406219,1,9,2,3
15,2,344,f42887_e_066,1,1.106795627,1,9,1,3
15,2,345,f42887_e_255,1,2.617877212,1,9,1,3
15,2,346,f42887_e_207,1,1.58744624,1,9,1,3
15,2,347,f42887_e_025,1,1.401736851,1,10,1,4
15,2,348,f42887_e_221,1,1.07666541,1,10,2,4
15,2,349,f42887_e_223,1,2.867767112,1,9,2,3
15,2,350,f42887_e_120,1,1.041709121,1,10,2,4
15,2,351,f42887_e_195,1,0.936921117,1,10,2,4
15,2,352,f42887_e_133,1,1.02667698,1,10,2,4
15,2,353,f42887_e_202,1,1.087144242,1,9,1,3
15,2,354,f42887_e_112,1,1.346765284,1,9,2,3
15,2,355,f42887_e_051,1,1.84712731,1,10,1,4
15,2,356,f42887_e_105,1,1.74659777,1,9,2,3
15,2,357,f42887_e_044,1,4.098146517,1,9,2,3
15,2,358,f42887_e_173,1,0.917133816,1,10,2,4
15,2,359,f42887_e_271,1,1.166931654,1,9,2,3
15,2,360,f42887_e_011,1,0.867401976,1,10,1,4
15,2,361,f42887_e_248,1,1.016918156,1,10,2,4
15,2,362,f42887_e_046,1,2.117519541,1,10,1,4
15,2,363,f42887_e_001,1,5.169554161,1,10,2,4
15,2,364,f42887_e_296,1,1.196521633,1,10,1,4
15,2,365,f42887_e_252,1,2.526498455,1,10,1,4
15,2,366,f42887_e_150,1,1.016235782,1,10,1,4
15,2,367,f42887_e_037,1,1.17698719,1,9,2,3
15,2,368,f42887_e_124,1,1.126006611,1,10,2,4
15,2,369,f42887_e_139,1,1.276511829,1,9,2,3
15,2,370,f42887_e_038,1,1.266780997,1,10,2,4
15,2,371,f42887_e_293,1,1.51616207,1,9,1,3
15,2,372,f42887_e_039,1,2.415835004,1,9,2,3
15,2,373,f42887_e_171,1,0.855474732,1,10,2,4
15,2,374,f42887_e_077,1,1.065949272,1,10,1,4
15,2,375,f42887_e_023,1,0.876042067,1,10,1,4
15,2,376,f42887_e_239,1,1.446240472,1,10,1,4
15,2,377,f42887_e_121,1,1.526143584,1,9,2,3
15,2,378,f42887_e_152,1,1.532516661,1,9,2,3
15,2,379,f42887_e_130,1,1.37582,1,9,1,3
15,2,380,f42887_e_251,1,2.055892492,1,9,1,3
15,2,381,f42887_e_096,1,1.149746022,1,9,2,3
15,2,382,f42887_e_161,1,1.775946087,1,9,1,3
15,2,383,f42887_e_212,1,1.364830476,1,9,2,3
15,2,384,f42887_e_138,1,1.279313172,1,9,2,3
15,2,385,f42887_e_111,1,1.2648334,1,10,1,4
15,2,386,f42887_e_193,1,1.215683475,1,10,1,4
15,2,387,f42887_e_176,1,1.155356483,1,10,1,4
15,2,388,f42887_e_012,1,2.475581947,1,9,1,3
15,2,389,f42887_e_297,1,1.425451692,1,10,1,4
15,2,390,f42887_e_190,1,1.295618622,1,9,2,3
15,2,391,f42887_e_076,1,1.365222048,1,9,1,3
15,2,392,f42887_e_237,1,1.095215169,1,10,2,4
15,2,393,f42887_e_061,1,5.436824701,1,9,2,3
15,2,394,f42887_e_153,1,1.164777541,1,10,1,4
15,2,395,f42887_e_259,1,1.554905942,1,9,2,3
15,2,396,f42887_e_216,1,1.455854672,1,9,1,3
15,2,397,f42887_e_058,1,1.015244255,1,10,2,4
15,2,398,f42887_e_116,1,1.095097293,1,10,1,4
15,2,399,f42887_e_021,1,3.446248558,1,10,2,4
15,2,400,f42887_e_115,1,1.635509467,1,9,2,3
15,2,401,f42887_e_258,1,1.391809144,1,10,1,4
15,2,402,f42887_e_013,1,1.414724979,1,9,2,3
15,2,403,f42887_e_186,1,1.255429759,1,10,1,4
15,2,404,f42887_e_034,1,1.455178518,1,9,2,3
15,2,405,f42887_e_196,1,1.295625775,1,9,2,3
15,2,406,f42887_e_095,1,1.945447686,1,9,1,3
15,2,407,f42887_e_101,1,0.904592933,1,10,2,4
15,2,408,f42887_e_088,1,1.325001462,1,10,1,4
15,2,409,f42887_e_167,1,1.154825264,1,9,2,3
15,2,410,f42887_e_268,1,1.755364445,1,10,2,4
15,2,411,f42887_e_128,1,1.325380904,1,10,2,4
15,2,412,f42887_e_007,1,1.404308662,1,10,2,4
15,2,413,f42887_e_118,1,0.984301036,1,10,2,4
15,2,414,f42887_e_286,1,1.36883857,1,10,2,4
15,2,415,f42887_e_160,1,1.295154271,1,10,1,4
15,2,416,f42887_e_098,1,1.103756356,1,10,1,4
15,2,417,f42887_e_102,1,0.944360055,1,10,2,4
15,2,418,f42887_e_283,1,1.194080449,1,9,2,3
15,2,419,f42887_e_024,1,0.964397725,1,10,1,4
15,2,420,f42887_e_272,1,1.053948627,1,10,2,4
15,2,421,f42887_e_278,1,2.67531982,1,9,2,3
15,2,422,f42887_e_080,1,1.044380769,1,9,2,3
15,2,423,f42887_e_027,1,0.914593729,1,10,2,4
15,2,424,f42887_e_018,1,1.013962548,1,10,1,4
15,2,425,f42887_e_122,1,1.524534374,1,9,2,3
15,2,426,f42887_e_073,1,2.934636065,1,9,2,3
15,2,427,f42887_e_041,1,1.21417939,1,10,2,4
15,2,428,f42887_e_149,1,1.154017238,1,10,1,4
15,2,429,f42887_e_204,1,0.854232836,1,10,2,4
15,2,430,f42887_e_004,1,1.284694101,1,9,1,3
15,2,431,f42887_e_022,1,0.78356075,1,10,1,4
15,2,432,f42887_e_156,1,4.365269012,1,10,2,4
15,2,433,f42887_e_017,1,1.213638529,1,9,1,3
15,2,434,f42887_e_092,1,1.444190239,1,9,1,3
15,2,435,f42887_e_256,1,1.144885738,1,10,1,4
15,2,436,f42887_e_218,1,1.024449777,1,9,1,3
15,2,437,f42887_e_180,1,1.234871755,1,10,1,4
15,2,438,f42887_e_135,1,1.134073184,1,10,2,4
15,2,439,f42887_e_159,1,1.817953785,1,9,2,3
15,2,440,f42887_e_294,1,1.633886884,1,9,2,3
15,2,441,f42887_e_147,1,2.896245199,1,9,2,3
15,2,442,f42887_e_029,1,1.433407542,1,9,2,3
15,2,443,f42887_e_033,1,1.85459455,1,9,1,3
15,2,444,f42887_e_217,1,1.593661632,1,9,2,3
15,2,445,f42887_e_274,1,3.184339353,1,9,2,3
15,2,446,f42887_e_220,1,1.123107609,1,10,1,4
15,2,447,f42887_e_108,1,0.903368765,1,10,2,4
15,2,448,f42887_e_148,1,1.213669009,1,9,2,3
15,2,449,f42887_e_078,1,1.26385307,1,9,2,3
15,2,450,f42887_e_127,1,1.173563499,1,9,2,3
15,2,451,f42887_e_143,1,1.46282926,1,9,2,3
15,2,452,f42887_e_227,1,1.734018942,1,10,2,4
15,2,453,f42887_e_276,1,1.192290849,1,10,1,4
15,2,454,f42887_e_273,1,1.94363165,0,9,2,4
15,2,455,f42887_e_050,1,0.883366861,1,10,2,4
15,2,456,f42887_e_154,1,0.993585246,1,10,2,4
15,2,457,f42887_e_172,1,0.993228819,1,9,2,3
15,2,458,f42887_e_119,1,1.09335248,1,10,2,4
15,2,459,f42887_e_185,1,1.032724422,1,9,2,3
15,2,460,f42887_e_000,1,1.4137602,1,9,1,3
15,2,461,f42887_e_141,1,1.483436716,1,9,2,3
15,2,462,f42887_e_254,1,1.480855263,1,9,1,3
15,2,463,f42887_e_187,1,1.343732233,1,9,1,3
15,2,464,f42887_e_035,1,3.123521263,1,9,2,3
15,2,465,f42887_e_091,1,1.513262135,1,9,2,3
15,2,466,f42887_e_057,1,1.47344836,1,9,2,3
15,2,467,f42887_e_165,1,1.243269562,1,10,1,4
15,2,468,f42887_e_065,1,1.052812166,1,10,1,4
15,2,469,f42887_e_106,1,2.305666071,1,9,1,3
15,2,470,f42887_e_170,1,2.313725801,1,9,1,3
15,2,471,f42887_e_279,1,4.073975101,1,10,1,4
15,2,472,f42887_e_151,1,1.502332327,1,10,1,4
15,2,473,f42887_e_110,1,2.073364261,1,9,2,3
15,2,474,f42887_e_079,1,1.462214376,1,9,1,3
15,2,475,f42887_e_287,1,1.573132863,1,10,2,4
