Subject,Condition,Block,Trial,Stimulus,Level,Group,RT,Acc,Location,Eye,Response
1,1,1,1,folder/11shapebCFSdim_0HSD.jpg  ,11,1,1.939747652,1,10,2,4
1,1,1,2,folder/19shapebCFSdim_p8HSD.jpg ,19,1,1.167073479,1,10,2,4
1,1,1,3,folder/10shapebCFSdim_m1HSD.jpg ,10,1,1.656102305,1,9,2,3
1,1,1,4,folder/09shapebCFSdim_m2HSD.jpg ,9,1,1.186956262,1,9,1,3
1,1,1,5,folder/02shapebCFSdim_m9HSD.jpg ,2,1,1.477034091,1,10,2,4
1,1,1,6,folder/13shapebCFSdim_p2HSD.jpg ,13,1,1.189104155,1,10,1,4
1,1,1,7,folder/04shapebCFSdim_m7HSD.jpg ,4,1,1.177665521,1,10,2,4
1,1,1,8,folder/15shapebCFSdim_p4HSD.jpg ,15,1,1.257231488,1,9,1,3
1,1,1,9,folder/14shapebCFSdim_p3HSD.jpg ,14,1,1.377085845,1,10,2,4
1,1,1,10,folder/12shapebCFSdim_p1HSD.jpg ,12,1,1.138993806,1,9,2,3
1,1,1,11,folder/21shapebCFSdim_p10HSD.jpg,21,1,1.346796075,1,9,2,3
1,1,1,12,folder/05shapebCFSdim_m6HSD.jpg ,5,1,1.557083071,1,9,2,3
1,1,1,13,folder/08shapebCFSdim_m3HSD.jpg ,8,1,1.287376635,1,10,1,4
1,1,1,14,folder/16shapebCFSdim_p5HSD.jpg ,16,1,1.794708271,1,10,1,4
1,1,1,15,folder/06shapebCFSdim_m5HSD.jpg ,6,1,1.263249694,1,10,1,4
1,1,1,16,folder/17shapebCFSdim_p6HSD.jpg ,17,1,0.926544611,1,10,1,4
1,1,1,17,folder/07shapebCFSdim_m4HSD.jpg ,7,1,1.496936158,1,10,2,4
1,1,1,18,folder/03shapebCFSdim_m8HSD.jpg ,3,1,1.256986406,1,9,1,3
1,1,1,19,folder/01shapebCFSdim_m10HSD.jpg,1,1,1.307218364,1,9,2,3
1,1,1,20,folder/18shapebCFSdim_p7HSD.jpg ,18,1,1.257075357,1,9,1,3
1,1,1,21,folder/20shapebCFSdim_p9HSD.jpg ,20,1,1.376654773,1,10,1,4
1,1,2,22,folder/05shapebCFSdim_m6HSD.jpg ,5,1,1.108993905,1,9,1,3
1,1,2,23,folder/02shapebCFSdim_m9HSD.jpg ,2,1,0.998224085,1,9,2,3
1,1,2,24,folder/09shapebCFSdim_m2HSD.jpg ,9,1,1.438255075,1,9,2,3
1,1,2,25,folder/14shapebCFSdim_p3HSD.jpg ,14,1,0.988013662,1,9,2,3
1,1,2,26,folder/16shapebCFSdim_p5HSD.jpg ,16,1,0.903340151,1,9,1,3
1,1,2,27,folder/21shapebCFSdim_p10HSD.jpg,21,1,0.898221721,1,9,1,3
1,1,2,28,folder/01shapebCFSdim_m10HSD.jpg,1,1,1.11858509,1,9,1,3
1,1,2,29,folder/12shapebCFSdim_p1HSD.jpg ,12,1,1.548457909,1,10,2,4
1,1,2,30,folder/19shapebCFSdim_p8HSD.jpg ,19,1,1.28765313,1,9,1,3
1,1,2,31,folder/07shapebCFSdim_m4HSD.jpg ,7,1,1.45871262,1,10,2,4
1,1,2,32,folder/18shapebCFSdim_p7HSD.jpg ,18,1,1.258638225,1,10,1,4
1,1,2,33,folder/11shapebCFSdim_0HSD.jpg  ,11,1,1.368148731,1,10,2,4
1,1,2,34,folder/08shapebCFSdim_m3HSD.jpg ,8,1,1.324649078,1,9,1,3
1,1,2,35,folder/04shapebCFSdim_m7HSD.jpg ,4,1,1.398285791,1,10,1,4
1,1,2,36,folder/15shapebCFSdim_p4HSD.jpg ,15,1,3.138174272,1,10,2,4
1,1,2,37,folder/06shapebCFSdim_m5HSD.jpg ,6,1,1.168029549,1,9,1,3
1,1,2,38,folder/10shapebCFSdim_m1HSD.jpg ,10,1,1.227950663,1,9,1,3
1,1,2,39,folder/03shapebCFSdim_m8HSD.jpg ,3,1,2.248194849,1,9,1,3
1,1,2,40,folder/20shapebCFSdim_p9HSD.jpg ,20,1,1.057574169,1,9,1,3
1,1,2,41,folder/17shapebCFSdim_p6HSD.jpg ,17,1,2.751788045,1,10,1,4
1,1,2,42,folder/13shapebCFSdim_p2HSD.jpg ,13,1,1.957382084,1,10,2,4
1,1,3,43,folder/16shapebCFSdim_p5HSD.jpg ,16,1,2.077622725,1,10,2,4
1,1,3,44,folder/21shapebCFSdim_p10HSD.jpg,21,1,0.987898275,1,9,1,3
1,1,3,45,folder/13shapebCFSdim_p2HSD.jpg ,13,1,1.268202973,1,9,2,3
1,1,3,46,folder/07shapebCFSdim_m4HSD.jpg ,7,1,1.20770461,1,10,2,4
1,1,3,47,folder/19shapebCFSdim_p8HSD.jpg ,19,1,0.988431049,1,9,2,3
1,1,3,48,folder/10shapebCFSdim_m1HSD.jpg ,10,1,0.938317279,1,10,1,4
1,1,3,49,folder/03shapebCFSdim_m8HSD.jpg ,3,1,0.817345744,0,10,1,3
1,1,3,50,folder/20shapebCFSdim_p9HSD.jpg ,20,1,1.277334784,1,9,2,3
1,1,3,51,folder/06shapebCFSdim_m5HSD.jpg ,6,1,1.377558282,1,9,2,3
1,1,3,52,folder/09shapebCFSdim_m2HSD.jpg ,9,1,2.187768331,1,10,2,4
1,1,3,53,folder/01shapebCFSdim_m10HSD.jpg,1,1,1.177671741,1,9,1,3
1,1,3,54,folder/11shapebCFSdim_0HSD.jpg  ,11,1,1.308063089,1,10,2,4
1,1,3,55,folder/08shapebCFSdim_m3HSD.jpg ,8,1,2.197179747,1,10,1,4
1,1,3,56,folder/02shapebCFSdim_m9HSD.jpg ,2,1,3.768986428,1,9,2,3
1,1,3,57,folder/18shapebCFSdim_p7HSD.jpg ,18,1,0.977025383,1,10,1,4
1,1,3,58,folder/14shapebCFSdim_p3HSD.jpg ,14,1,1.937987288,1,10,2,4
1,1,3,59,folder/17shapebCFSdim_p6HSD.jpg ,17,1,1.247160091,1,10,1,4
1,1,3,60,folder/05shapebCFSdim_m6HSD.jpg ,5,1,1.072769283,1,9,2,3
1,1,3,61,folder/12shapebCFSdim_p1HSD.jpg ,12,1,1.047465449,1,9,1,3
1,1,3,62,folder/04shapebCFSdim_m7HSD.jpg ,4,1,1.037328738,1,10,1,4
1,1,3,63,folder/15shapebCFSdim_p4HSD.jpg ,15,1,1.037414268,1,9,1,3
1,1,4,64,folder/08shapebCFSdim_m3HSD.jpg ,8,1,3.083083275,1,10,1,4
1,1,4,65,folder/01shapebCFSdim_m10HSD.jpg,1,1,1.247012979,1,9,2,3
1,1,4,66,folder/06shapebCFSdim_m5HSD.jpg ,6,1,0.956959721,1,10,1,4
1,1,4,67,folder/09shapebCFSdim_m2HSD.jpg ,9,1,1.194036907,1,9,1,3
1,1,4,68,folder/13shapebCFSdim_p2HSD.jpg ,13,1,1.327110166,1,9,2,3
1,1,4,69,folder/03shapebCFSdim_m8HSD.jpg ,3,1,1.126835164,1,10,1,4
1,1,4,70,folder/04shapebCFSdim_m7HSD.jpg ,4,1,1.516530316,1,10,2,4
1,1,4,71,folder/19shapebCFSdim_p8HSD.jpg ,19,1,2.087085459,1,10,1,4
1,1,4,72,folder/15shapebCFSdim_p4HSD.jpg ,15,1,0.917133194,1,9,1,3
1,1,4,73,folder/12shapebCFSdim_p1HSD.jpg ,12,1,1.21664701,1,9,1,3
1,1,4,74,folder/20shapebCFSdim_p9HSD.jpg ,20,1,2.006478824,1,9,2,3
1,1,4,75,folder/07shapebCFSdim_m4HSD.jpg ,7,1,1.366655221,1,9,1,3
1,1,4,76,folder/16shapebCFSdim_p5HSD.jpg ,16,1,1.86743059,1,9,2,3
1,1,4,77,folder/21shapebCFSdim_p10HSD.jpg,21,1,2.426681148,1,10,2,4
1,1,4,78,folder/14shapebCFSdim_p3HSD.jpg ,14,1,1.416323924,1,9,2,3
1,1,4,79,folder/10shapebCFSdim_m1HSD.jpg ,10,1,2.326799148,1,10,1,4
1,1,4,80,folder/18shapebCFSdim_p7HSD.jpg ,18,1,1.147084327,1,9,2,3
1,1,4,81,folder/17shapebCFSdim_p6HSD.jpg ,17,1,1.536133183,1,10,2,4
1,1,4,82,folder/05shapebCFSdim_m6HSD.jpg ,5,1,1.756717686,1,10,2,4
1,1,4,83,folder/11shapebCFSdim_0HSD.jpg  ,11,1,1.426649424,1,10,2,4
1,1,4,84,folder/02shapebCFSdim_m9HSD.jpg ,2,1,1.316068392,1,9,2,3
1,1,5,85,folder/15shapebCFSdim_p4HSD.jpg ,15,1,1.017211135,1,9,1,3
1,1,5,86,folder/20shapebCFSdim_p9HSD.jpg ,20,1,1.946455075,1,9,2,3
1,1,5,87,folder/04shapebCFSdim_m7HSD.jpg ,4,1,0.846468573,1,9,1,3
1,1,5,88,folder/07shapebCFSdim_m4HSD.jpg ,7,1,1.1365548,1,9,1,3
1,1,5,89,folder/09shapebCFSdim_m2HSD.jpg ,9,1,2.616452126,1,10,1,4
1,1,5,90,folder/10shapebCFSdim_m1HSD.jpg ,10,1,1.515933472,1,10,2,4
1,1,5,91,folder/14shapebCFSdim_p3HSD.jpg ,14,1,2.656269944,1,10,2,4
1,1,5,92,folder/02shapebCFSdim_m9HSD.jpg ,2,1,1.225825474,1,10,2,4
1,1,5,93,folder/13shapebCFSdim_p2HSD.jpg ,13,1,1.266257242,1,9,1,3
1,1,5,94,folder/16shapebCFSdim_p5HSD.jpg ,16,1,1.146732876,1,9,1,3
1,1,5,95,folder/03shapebCFSdim_m8HSD.jpg ,3,1,1.206487906,1,10,1,4
1,1,5,96,folder/17shapebCFSdim_p6HSD.jpg ,17,1,1.27587984,1,10,1,4
1,1,5,97,folder/12shapebCFSdim_p1HSD.jpg ,12,1,2.155486178,1,10,2,4
1,1,5,98,folder/19shapebCFSdim_p8HSD.jpg ,19,1,1.026223204,1,9,1,3
1,1,5,99,folder/11shapebCFSdim_0HSD.jpg  ,11,1,1.505920857,1,10,2,4
1,1,5,100,folder/08shapebCFSdim_m3HSD.jpg ,8,1,1.096295336,0,10,1,3
1,1,5,101,folder/01shapebCFSdim_m10HSD.jpg,1,1,1.636316871,1,9,1,3
1,1,5,102,folder/18shapebCFSdim_p7HSD.jpg ,18,1,5.807331885,1,10,2,4
1,1,5,103,folder/05shapebCFSdim_m6HSD.jpg ,5,1,1.185561656,1,10,2,4
1,1,5,104,folder/21shapebCFSdim_p10HSD.jpg,21,1,1.345932066,1,9,2,3
1,1,5,105,folder/06shapebCFSdim_m5HSD.jpg ,6,1,1.44142964,1,10,2,4
1,1,6,106,folder/16shapebCFSdim_p5HSD.jpg ,16,1,1.525741748,1,9,1,3
1,1,6,107,folder/20shapebCFSdim_p9HSD.jpg ,20,1,1.165278903,1,9,2,3
1,1,6,108,folder/13shapebCFSdim_p2HSD.jpg ,13,1,1.705785626,1,9,1,3
1,1,6,109,folder/11shapebCFSdim_0HSD.jpg  ,11,1,1.705794335,1,10,1,4
1,1,6,110,folder/06shapebCFSdim_m5HSD.jpg ,6,1,1.24588305,1,9,2,3
1,1,6,111,folder/07shapebCFSdim_m4HSD.jpg ,7,1,1.133370593,1,9,1,3
1,1,6,112,folder/02shapebCFSdim_m9HSD.jpg ,2,1,1.375872562,1,10,1,4
1,1,6,113,folder/08shapebCFSdim_m3HSD.jpg ,8,1,1.545794036,1,9,2,3
1,1,6,114,folder/19shapebCFSdim_p8HSD.jpg ,19,1,0.986112407,1,9,2,3
1,1,6,115,folder/10shapebCFSdim_m1HSD.jpg ,10,1,1.146253908,1,9,1,3
1,1,6,116,folder/01shapebCFSdim_m10HSD.jpg,1,1,1.514550062,1,9,2,3
1,1,6,117,folder/21shapebCFSdim_p10HSD.jpg,21,1,2.224852608,1,10,1,4
1,1,6,118,folder/03shapebCFSdim_m8HSD.jpg ,3,1,0.975786286,1,9,1,3
1,1,6,119,folder/18shapebCFSdim_p7HSD.jpg ,18,1,0.985668584,1,9,1,3
1,1,6,120,folder/09shapebCFSdim_m2HSD.jpg ,9,1,1.855163714,1,10,1,4
1,1,6,121,folder/04shapebCFSdim_m7HSD.jpg ,4,1,1.836353944,1,10,1,4
1,1,6,122,folder/05shapebCFSdim_m6HSD.jpg ,5,1,2.555876319,1,9,2,3
1,1,6,123,folder/15shapebCFSdim_p4HSD.jpg ,15,1,1.185578451,1,9,1,3
1,1,6,124,folder/12shapebCFSdim_p1HSD.jpg ,12,1,1.015651689,1,9,2,3
1,1,6,125,folder/17shapebCFSdim_p6HSD.jpg ,17,1,1.164715959,1,9,2,3
1,1,6,126,folder/14shapebCFSdim_p3HSD.jpg ,14,1,0.845418886,1,9,2,3
1,1,7,127,folder/01shapebCFSdim_m10HSD.jpg,1,1,1.555063628,1,9,1,3
1,1,7,128,folder/12shapebCFSdim_p1HSD.jpg ,12,1,1.145577132,1,9,1,3
1,1,7,129,folder/10shapebCFSdim_m1HSD.jpg ,10,1,1.264858903,1,9,1,3
1,1,7,130,folder/04shapebCFSdim_m7HSD.jpg ,4,1,1.775194666,1,9,2,3
1,1,7,131,folder/03shapebCFSdim_m8HSD.jpg ,3,1,1.424752212,1,10,2,4
1,1,7,132,folder/15shapebCFSdim_p4HSD.jpg ,15,1,1.984529634,1,10,1,4
1,1,7,133,folder/11shapebCFSdim_0HSD.jpg  ,11,1,1.39436105,1,9,2,3
1,1,7,134,folder/07shapebCFSdim_m4HSD.jpg ,7,1,1.485088534,1,10,1,4
1,1,7,135,folder/05shapebCFSdim_m6HSD.jpg ,5,1,1.015295262,1,9,2,3
1,1,7,136,folder/06shapebCFSdim_m5HSD.jpg ,6,1,1.255367244,1,9,1,3
1,1,7,137,folder/08shapebCFSdim_m3HSD.jpg ,8,1,1.674999782,1,9,2,3
1,1,7,138,folder/16shapebCFSdim_p5HSD.jpg ,16,1,1.124826607,1,9,2,3
1,1,7,139,folder/13shapebCFSdim_p2HSD.jpg ,13,1,1.265154371,1,9,1,3
1,1,7,140,folder/02shapebCFSdim_m9HSD.jpg ,2,1,1.654962734,1,10,2,4
1,1,7,141,folder/18shapebCFSdim_p7HSD.jpg ,18,1,1.173689462,1,9,1,3
1,1,7,142,folder/19shapebCFSdim_p8HSD.jpg ,19,1,1.262864031,1,10,2,4
1,1,7,143,folder/20shapebCFSdim_p9HSD.jpg ,20,1,1.044645134,1,10,1,4
1,1,7,144,folder/14shapebCFSdim_p3HSD.jpg ,14,1,1.22429122,1,10,2,4
1,1,7,145,folder/17shapebCFSdim_p6HSD.jpg ,17,1,2.05504901,1,9,2,3
1,1,7,146,folder/21shapebCFSdim_p10HSD.jpg,21,1,1.524546193,1,10,2,4
1,1,7,147,folder/09shapebCFSdim_m2HSD.jpg ,9,1,1.024684285,1,9,2,3
1,1,8,148,folder/15shapebCFSdim_p4HSD.jpg ,15,1,1.942546818,1,9,1,3
1,1,8,149,folder/16shapebCFSdim_p5HSD.jpg ,16,1,2.054783401,1,10,2,4
1,1,8,150,folder/07shapebCFSdim_m4HSD.jpg ,7,1,1.224168368,0,10,2,3
1,1,8,151,folder/18shapebCFSdim_p7HSD.jpg ,18,1,4.264250862,1,10,2,4
1,1,8,152,folder/04shapebCFSdim_m7HSD.jpg ,4,1,2.004525318,0,10,2,3
1,1,8,153,folder/03shapebCFSdim_m8HSD.jpg ,3,1,1.397875247,1,9,2,3
1,1,8,154,folder/17shapebCFSdim_p6HSD.jpg ,17,1,1.094399679,1,10,1,4
1,1,8,155,folder/12shapebCFSdim_p1HSD.jpg ,12,1,1.334916106,1,9,1,3
1,1,8,156,folder/13shapebCFSdim_p2HSD.jpg ,13,1,1.544331006,1,10,2,4
1,1,8,157,folder/10shapebCFSdim_m1HSD.jpg ,10,1,1.484477072,1,9,2,3
1,1,8,158,folder/05shapebCFSdim_m6HSD.jpg ,5,1,2.073961727,1,10,1,4
1,1,8,159,folder/08shapebCFSdim_m3HSD.jpg ,8,1,3.29394752,1,9,2,3
1,1,8,160,folder/09shapebCFSdim_m2HSD.jpg ,9,1,1.673381865,1,10,1,4
1,1,8,161,folder/02shapebCFSdim_m9HSD.jpg ,2,1,3.653611359,1,9,2,3
1,1,8,162,folder/19shapebCFSdim_p8HSD.jpg ,19,1,1.543224402,1,9,1,3
1,1,8,163,folder/01shapebCFSdim_m10HSD.jpg,1,1,1.003007859,1,9,2,3
1,1,8,164,folder/11shapebCFSdim_0HSD.jpg  ,11,1,1.043313354,1,10,2,4
1,1,8,165,folder/20shapebCFSdim_p9HSD.jpg ,20,1,1.743288534,1,10,1,4
1,1,8,166,folder/14shapebCFSdim_p3HSD.jpg ,14,1,1.513605188,1,10,2,4
1,1,8,167,folder/21shapebCFSdim_p10HSD.jpg,21,1,1.304253114,1,10,1,4
1,1,8,168,folder/06shapebCFSdim_m5HSD.jpg ,6,1,1.414055667,1,10,2,4
1,1,9,169,folder/06shapebCFSdim_m5HSD.jpg ,6,1,2.403748207,1,10,2,4
1,1,9,170,folder/21shapebCFSdim_p10HSD.jpg,21,1,2.873562318,1,10,1,4
1,1,9,171,folder/07shapebCFSdim_m4HSD.jpg ,7,1,1.223956875,1,10,2,4
1,1,9,172,folder/01shapebCFSdim_m10HSD.jpg,1,1,1.423568787,1,10,1,4
1,1,9,173,folder/12shapebCFSdim_p1HSD.jpg ,12,1,1.483406236,1,9,2,3
1,1,9,174,folder/05shapebCFSdim_m6HSD.jpg ,5,1,1.333255579,1,10,2,4
1,1,9,175,folder/18shapebCFSdim_p7HSD.jpg ,18,1,1.284414495,1,10,2,4
1,1,9,176,folder/17shapebCFSdim_p6HSD.jpg ,17,1,1.15394166,1,9,1,3
1,1,9,177,folder/20shapebCFSdim_p9HSD.jpg ,20,1,1.133763721,1,9,1,3
1,1,9,178,folder/13shapebCFSdim_p2HSD.jpg ,13,1,1.843185152,1,10,2,4
1,1,9,179,folder/09shapebCFSdim_m2HSD.jpg ,9,1,0.923248127,1,9,1,3
1,1,9,180,folder/10shapebCFSdim_m1HSD.jpg ,10,1,1.143228943,1,10,1,4
1,1,9,181,folder/04shapebCFSdim_m7HSD.jpg ,4,1,1.123513177,1,10,1,4
1,1,9,182,folder/19shapebCFSdim_p8HSD.jpg ,19,1,2.193273668,1,10,1,4
1,1,9,183,folder/02shapebCFSdim_m9HSD.jpg ,2,1,1.402785294,1,10,1,4
1,1,9,184,folder/16shapebCFSdim_p5HSD.jpg ,16,1,0.873283956,1,9,1,3
1,1,9,185,folder/11shapebCFSdim_0HSD.jpg  ,11,1,0.952483855,1,9,1,3
1,1,9,186,folder/08shapebCFSdim_m3HSD.jpg ,8,1,1.173542972,1,9,2,3
1,1,9,187,folder/14shapebCFSdim_p3HSD.jpg ,14,1,1.722470208,1,10,1,4
1,1,9,188,folder/03shapebCFSdim_m8HSD.jpg ,3,1,0.823370481,1,9,1,3
1,1,9,189,folder/15shapebCFSdim_p4HSD.jpg ,15,1,0.85981064,1,9,1,3
1,1,10,190,folder/04shapebCFSdim_m7HSD.jpg ,4,1,1.213668698,1,10,2,4
1,1,10,191,folder/18shapebCFSdim_p7HSD.jpg ,18,1,1.203015385,0,10,1,3
1,1,10,192,folder/05shapebCFSdim_m6HSD.jpg ,5,1,0.964544215,1,9,1,3
1,1,10,193,folder/21shapebCFSdim_p10HSD.jpg,21,1,1.523144122,1,10,2,4
1,1,10,194,folder/19shapebCFSdim_p8HSD.jpg ,19,1,1.042787732,1,9,2,3
1,1,10,195,folder/12shapebCFSdim_p1HSD.jpg ,12,1,1.492849065,1,10,2,4
1,1,10,196,folder/09shapebCFSdim_m2HSD.jpg ,9,1,1.541017727,1,10,2,4
1,1,10,197,folder/20shapebCFSdim_p9HSD.jpg ,20,1,1.263081122,1,10,1,4
1,1,10,198,folder/08shapebCFSdim_m3HSD.jpg ,8,1,1.572809093,1,10,1,4
1,1,10,199,folder/14shapebCFSdim_p3HSD.jpg ,14,1,1.192943988,1,9,2,3
1,1,10,200,folder/13shapebCFSdim_p2HSD.jpg ,13,1,1.262572607,1,10,1,4
1,1,10,201,folder/01shapebCFSdim_m10HSD.jpg,1,1,2.113003865,1,10,2,4
1,1,10,202,folder/03shapebCFSdim_m8HSD.jpg ,3,1,1.422280549,1,10,1,4
1,1,10,203,folder/11shapebCFSdim_0HSD.jpg  ,11,1,1.778499237,1,10,1,4
1,1,10,204,folder/07shapebCFSdim_m4HSD.jpg ,7,1,2.111199648,1,10,1,4
1,1,10,205,folder/10shapebCFSdim_m1HSD.jpg ,10,1,1.082056292,1,9,2,3
1,1,10,206,folder/16shapebCFSdim_p5HSD.jpg ,16,1,0.832380373,1,9,1,3
1,1,10,207,folder/06shapebCFSdim_m5HSD.jpg ,6,1,0.992967252,1,9,1,3
1,1,10,208,folder/02shapebCFSdim_m9HSD.jpg ,2,1,1.462453549,1,9,2,3
1,1,10,209,folder/17shapebCFSdim_p6HSD.jpg ,17,1,1.472602701,1,9,2,3
1,1,10,210,folder/15shapebCFSdim_p4HSD.jpg ,15,1,1.612937307,1,10,2,4
1,1,11,211,folder/05shapebCFSdim_m6HSD.jpg ,5,1,1.08211694,1,9,2,3
1,1,11,212,folder/01shapebCFSdim_m10HSD.jpg,1,1,1.131744278,1,9,1,3
1,1,11,213,folder/19shapebCFSdim_p8HSD.jpg ,19,1,1.312366029,1,9,2,3
1,1,11,214,folder/06shapebCFSdim_m5HSD.jpg ,6,1,1.342606969,1,10,2,4
1,1,11,215,folder/17shapebCFSdim_p6HSD.jpg ,17,1,1.092350067,1,9,2,3
1,1,11,216,folder/21shapebCFSdim_p10HSD.jpg,21,1,1.201487974,1,10,1,4
1,1,11,217,folder/12shapebCFSdim_p1HSD.jpg ,12,1,1.211917043,1,9,2,3
1,1,11,218,folder/16shapebCFSdim_p5HSD.jpg ,16,1,1.461414126,1,9,1,3
1,1,11,219,folder/20shapebCFSdim_p9HSD.jpg ,20,1,1.121401673,1,9,2,3
1,1,11,220,folder/15shapebCFSdim_p4HSD.jpg ,15,1,1.071903097,1,10,2,4
1,1,11,221,folder/11shapebCFSdim_0HSD.jpg  ,11,1,1.141713351,1,9,1,3
1,1,11,222,folder/02shapebCFSdim_m9HSD.jpg ,2,1,1.211788281,1,9,1,3
1,1,11,223,folder/10shapebCFSdim_m1HSD.jpg ,10,1,2.251945731,1,10,2,4
1,1,11,224,folder/14shapebCFSdim_p3HSD.jpg ,14,1,2.251994872,1,9,2,3
1,1,11,225,folder/04shapebCFSdim_m7HSD.jpg ,4,1,2.411505628,1,9,1,3
1,1,11,226,folder/03shapebCFSdim_m8HSD.jpg ,3,1,2.281675979,1,10,2,4
1,1,11,227,folder/08shapebCFSdim_m3HSD.jpg ,8,1,0.781889648,1,9,2,3
1,1,11,228,folder/07shapebCFSdim_m4HSD.jpg ,7,1,1.031575209,1,9,2,3
1,1,11,229,folder/09shapebCFSdim_m2HSD.jpg ,9,1,2.651951143,1,10,2,4
1,1,11,230,folder/18shapebCFSdim_p7HSD.jpg ,18,1,2.691002611,1,10,2,4
1,1,11,231,folder/13shapebCFSdim_p2HSD.jpg ,13,1,1.280934822,1,10,2,4
1,1,12,232,folder/08shapebCFSdim_m3HSD.jpg ,8,1,1.296117184,1,9,2,3
1,1,12,233,folder/17shapebCFSdim_p6HSD.jpg ,17,1,0.960970925,1,9,2,3
1,1,12,234,folder/10shapebCFSdim_m1HSD.jpg ,10,1,1.361660888,1,9,2,3
1,1,12,235,folder/21shapebCFSdim_p10HSD.jpg,21,1,1.431129644,1,9,2,3
1,1,12,236,folder/06shapebCFSdim_m5HSD.jpg ,6,1,1.171512955,1,9,1,3
1,1,12,237,folder/19shapebCFSdim_p8HSD.jpg ,19,1,1.380860675,1,10,2,4
1,1,12,238,folder/16shapebCFSdim_p5HSD.jpg ,16,1,1.241082481,1,9,2,3
1,1,12,239,folder/12shapebCFSdim_p1HSD.jpg ,12,1,1.021609246,1,10,1,4
1,1,12,240,folder/20shapebCFSdim_p9HSD.jpg ,20,1,1.091276432,1,9,1,3
1,1,12,241,folder/13shapebCFSdim_p2HSD.jpg ,13,1,1.101130738,1,9,1,3
1,1,12,242,folder/14shapebCFSdim_p3HSD.jpg ,14,1,1.541545525,1,10,1,4
1,1,12,243,folder/15shapebCFSdim_p4HSD.jpg ,15,1,0.93058194,1,9,1,3
1,1,12,244,folder/04shapebCFSdim_m7HSD.jpg ,4,1,1.751166008,1,9,2,3
1,1,12,245,folder/03shapebCFSdim_m8HSD.jpg ,3,1,1.760523618,1,9,2,3
1,1,12,246,folder/18shapebCFSdim_p7HSD.jpg ,18,1,1.041090505,1,9,2,3
1,1,12,247,folder/07shapebCFSdim_m4HSD.jpg ,7,1,1.060815291,1,9,2,3
1,1,12,248,folder/01shapebCFSdim_m10HSD.jpg,1,1,0.981339519,1,9,2,3
1,1,12,249,folder/02shapebCFSdim_m9HSD.jpg ,2,1,1.101721673,1,9,1,3
1,1,12,250,folder/05shapebCFSdim_m6HSD.jpg ,5,1,2.0111808,1,9,1,3
1,1,12,251,folder/09shapebCFSdim_m2HSD.jpg ,9,1,1.140877333,1,10,1,4
1,1,12,252,folder/11shapebCFSdim_0HSD.jpg  ,11,1,1.054962858,1,9,2,3
1,1,13,253,folder/12shapebCFSdim_p1HSD.jpg ,12,1,1.340821723,1,10,1,4
1,1,13,254,folder/15shapebCFSdim_p4HSD.jpg ,15,1,1.00109634,1,9,1,3
1,1,13,255,folder/07shapebCFSdim_m4HSD.jpg ,7,1,1.301423158,1,10,1,4
1,1,13,256,folder/13shapebCFSdim_p2HSD.jpg ,13,1,1.280449011,1,10,1,4
1,1,13,257,folder/05shapebCFSdim_m6HSD.jpg ,5,1,1.411794564,1,10,2,4
1,1,13,258,folder/14shapebCFSdim_p3HSD.jpg ,14,1,1.340390963,1,10,1,4
1,1,13,259,folder/06shapebCFSdim_m5HSD.jpg ,6,1,1.011387316,1,9,1,3
1,1,13,260,folder/10shapebCFSdim_m1HSD.jpg ,10,1,1.021148939,1,9,2,3
1,1,13,261,folder/16shapebCFSdim_p5HSD.jpg ,16,1,1.190522088,1,10,2,4
1,1,13,262,folder/18shapebCFSdim_p7HSD.jpg ,18,1,1.07053897,1,9,2,3
1,1,13,263,folder/21shapebCFSdim_p10HSD.jpg,21,1,1.051218197,1,9,1,3
1,1,13,264,folder/19shapebCFSdim_p8HSD.jpg ,19,1,1.130000087,1,9,1,3
1,1,13,265,folder/02shapebCFSdim_m9HSD.jpg ,2,1,1.021618266,1,9,2,3
1,1,13,266,folder/17shapebCFSdim_p6HSD.jpg ,17,1,0.931002437,1,9,1,3
1,1,13,267,folder/11shapebCFSdim_0HSD.jpg  ,11,1,0.860702329,1,9,1,3
1,1,13,268,folder/04shapebCFSdim_m7HSD.jpg ,4,1,1.190557233,1,9,1,3
1,1,13,269,folder/20shapebCFSdim_p9HSD.jpg ,20,1,2.230208967,1,10,2,4
1,1,13,270,folder/01shapebCFSdim_m10HSD.jpg,1,1,1.150055175,1,9,1,3
1,1,13,271,folder/08shapebCFSdim_m3HSD.jpg ,8,1,1.679956482,1,10,1,4
1,1,13,272,folder/03shapebCFSdim_m8HSD.jpg ,3,1,1.160314427,1,9,2,3
1,1,13,273,folder/09shapebCFSdim_m2HSD.jpg ,9,1,1.470396959,1,10,2,4
1,1,14,274,folder/11shapebCFSdim_0HSD.jpg  ,11,1,1.222476117,1,10,2,4
1,1,14,275,folder/13shapebCFSdim_p2HSD.jpg ,13,1,1.070213334,1,9,1,3
1,1,14,276,folder/09shapebCFSdim_m2HSD.jpg ,9,1,1.32011754,1,10,1,4
1,1,14,277,folder/16shapebCFSdim_p5HSD.jpg ,16,1,1.920098133,1,10,1,4
1,1,14,278,folder/01shapebCFSdim_m10HSD.jpg,1,1,2.079751646,1,10,2,4
1,1,14,279,folder/03shapebCFSdim_m8HSD.jpg ,3,1,1.829973402,1,10,2,4
1,1,14,280,folder/08shapebCFSdim_m3HSD.jpg ,8,1,2.530327403,1,10,1,4
1,1,14,281,folder/12shapebCFSdim_p1HSD.jpg ,12,1,2.250026748,1,10,2,4
1,1,14,282,folder/05shapebCFSdim_m6HSD.jpg ,5,1,1.309389583,1,9,1,3
1,1,14,283,folder/15shapebCFSdim_p4HSD.jpg ,15,1,1.250454398,1,9,1,3
1,1,14,284,folder/07shapebCFSdim_m4HSD.jpg ,7,1,1.279752641,1,9,2,3
1,1,14,285,folder/04shapebCFSdim_m7HSD.jpg ,4,1,0.959985307,1,9,1,3
1,1,14,286,folder/10shapebCFSdim_m1HSD.jpg ,10,1,1.149583049,1,9,2,3
1,1,14,287,folder/21shapebCFSdim_p10HSD.jpg,21,1,0.869967567,1,9,2,3
1,1,14,288,folder/14shapebCFSdim_p3HSD.jpg ,14,1,1.78891742,1,10,2,4
1,1,14,289,folder/18shapebCFSdim_p7HSD.jpg ,18,1,1.579452446,1,10,2,4
1,1,14,290,folder/20shapebCFSdim_p9HSD.jpg ,20,1,1.309299077,1,10,2,4
1,1,14,291,folder/19shapebCFSdim_p8HSD.jpg ,19,1,1.389228936,1,10,2,4
1,1,14,292,folder/02shapebCFSdim_m9HSD.jpg ,2,1,1.579588361,1,10,2,4
1,1,14,293,folder/17shapebCFSdim_p6HSD.jpg ,17,1,1.179144102,1,9,1,3
1,1,14,294,folder/06shapebCFSdim_m5HSD.jpg ,6,1,1.22873163,1,10,1,4
1,1,15,295,folder/13shapebCFSdim_p2HSD.jpg ,13,1,3.0769982,1,10,2,4
1,1,15,296,folder/17shapebCFSdim_p6HSD.jpg ,17,1,1.629424081,1,10,2,4
1,1,15,297,folder/02shapebCFSdim_m9HSD.jpg ,2,1,1.07899867,1,9,2,3
1,1,15,298,folder/16shapebCFSdim_p5HSD.jpg ,16,1,0.979162079,1,10,1,4
1,1,15,299,folder/05shapebCFSdim_m6HSD.jpg ,5,1,1.14947668,1,10,1,4
1,1,15,300,folder/11shapebCFSdim_0HSD.jpg  ,11,1,1.529167926,1,10,1,4
1,1,15,301,folder/06shapebCFSdim_m5HSD.jpg ,6,1,0.889974136,1,9,2,3
1,1,15,302,folder/04shapebCFSdim_m7HSD.jpg ,4,1,1.172976608,1,9,1,3
1,1,15,303,folder/08shapebCFSdim_m3HSD.jpg ,8,1,1.48978118,1,10,2,4
1,1,15,304,folder/18shapebCFSdim_p7HSD.jpg ,18,1,1.421800958,1,10,1,4
1,1,15,305,folder/14shapebCFSdim_p3HSD.jpg ,14,1,2.118975418,1,10,2,4
1,1,15,306,folder/19shapebCFSdim_p8HSD.jpg ,19,1,1.608273587,1,10,1,4
1,1,15,307,folder/15shapebCFSdim_p4HSD.jpg ,15,1,1.299996206,1,9,1,3
1,1,15,308,folder/12shapebCFSdim_p1HSD.jpg ,12,1,1.409608104,1,10,2,4
1,1,15,309,folder/09shapebCFSdim_m2HSD.jpg ,9,1,1.358985197,1,9,2,3
1,1,15,310,folder/20shapebCFSdim_p9HSD.jpg ,20,1,1.768691583,1,10,2,4
1,1,15,311,folder/03shapebCFSdim_m8HSD.jpg ,3,1,2.27852785,1,10,1,4
1,1,15,312,folder/10shapebCFSdim_m1HSD.jpg ,10,1,1.838319891,1,10,2,4
1,1,15,313,folder/01shapebCFSdim_m10HSD.jpg,1,1,0.808357624,1,10,2,4
1,1,15,314,folder/21shapebCFSdim_p10HSD.jpg,21,1,1.298842949,1,10,1,4
1,1,15,315,folder/07shapebCFSdim_m4HSD.jpg ,7,1,1.327551191,1,10,1,4
1,1,16,316,folder/07shapebCFSdim_m4HSD.jpg ,7,1,0.998997588,1,9,1,3
1,1,16,317,folder/17shapebCFSdim_p6HSD.jpg ,17,1,1.118671864,1,10,1,4
1,1,16,318,folder/21shapebCFSdim_p10HSD.jpg,21,1,4.028811499,1,10,1,4
1,1,16,319,folder/19shapebCFSdim_p8HSD.jpg ,19,1,1.148431037,1,9,2,3
1,1,16,320,folder/02shapebCFSdim_m9HSD.jpg ,2,1,2.368948671,1,10,2,4
1,1,16,321,folder/14shapebCFSdim_p3HSD.jpg ,14,1,1.418330304,1,9,2,3
1,1,16,322,folder/09shapebCFSdim_m2HSD.jpg ,9,1,1.978327928,1,10,1,4
1,1,16,323,folder/12shapebCFSdim_p1HSD.jpg ,12,1,1.427910603,1,9,2,3
1,1,16,324,folder/11shapebCFSdim_0HSD.jpg  ,11,1,1.307940237,0,9,2,4
1,1,16,325,folder/13shapebCFSdim_p2HSD.jpg ,13,1,0.998290332,1,10,1,4
1,1,16,326,folder/08shapebCFSdim_m3HSD.jpg ,8,1,1.108875407,1,10,1,4
1,1,16,327,folder/16shapebCFSdim_p5HSD.jpg ,16,1,0.777723246,1,9,1,3
1,1,16,328,folder/03shapebCFSdim_m8HSD.jpg ,3,1,0.889194724,1,9,1,3
1,1,16,329,folder/04shapebCFSdim_m7HSD.jpg ,4,1,1.457205114,1,9,1,3
1,1,16,330,folder/01shapebCFSdim_m10HSD.jpg,1,1,1.16772755,1,10,1,4
1,1,16,331,folder/20shapebCFSdim_p9HSD.jpg ,20,1,1.197928991,1,10,1,4
1,1,16,332,folder/05shapebCFSdim_m6HSD.jpg ,5,1,1.488816401,1,10,2,4
1,1,16,333,folder/18shapebCFSdim_p7HSD.jpg ,18,1,1.077994703,1,9,1,3
1,1,16,334,folder/06shapebCFSdim_m5HSD.jpg ,6,1,0.888611875,1,9,1,3
1,1,16,335,folder/15shapebCFSdim_p4HSD.jpg ,15,1,1.380469414,1,9,2,3
1,1,16,336,folder/10shapebCFSdim_m1HSD.jpg ,10,1,1.066885126,1,9,1,3
1,1,17,337,folder/05shapebCFSdim_m6HSD.jpg ,5,1,1.048396327,1,9,2,3
1,1,17,338,folder/12shapebCFSdim_p1HSD.jpg ,12,1,1.088244936,1,9,2,3
1,1,17,339,folder/17shapebCFSdim_p6HSD.jpg ,17,1,1.407982411,1,9,2,3
1,1,17,340,folder/15shapebCFSdim_p4HSD.jpg ,15,1,0.888874686,1,9,2,3
1,1,17,341,folder/19shapebCFSdim_p8HSD.jpg ,19,1,0.998319257,1,9,1,3
1,1,17,342,folder/01shapebCFSdim_m10HSD.jpg,1,1,1.857973454,1,10,2,4
1,1,17,343,folder/10shapebCFSdim_m1HSD.jpg ,10,1,0.938022744,1,10,1,4
1,1,17,344,folder/03shapebCFSdim_m8HSD.jpg ,3,1,1.178374954,1,9,2,3
1,1,17,345,folder/21shapebCFSdim_p10HSD.jpg,21,1,1.898311917,1,10,2,4
1,1,17,346,folder/09shapebCFSdim_m2HSD.jpg ,9,1,0.73760685,1,9,1,3
1,1,17,347,folder/14shapebCFSdim_p3HSD.jpg ,14,1,1.058326522,1,10,1,4
1,1,17,348,folder/04shapebCFSdim_m7HSD.jpg ,4,1,0.847668793,1,9,1,3
1,1,17,349,folder/11shapebCFSdim_0HSD.jpg  ,11,1,0.93812227,1,9,1,3
1,1,17,350,folder/18shapebCFSdim_p7HSD.jpg ,18,1,1.107896321,1,9,1,3
1,1,17,351,folder/16shapebCFSdim_p5HSD.jpg ,16,1,0.988133404,1,9,2,3
1,1,17,352,folder/20shapebCFSdim_p9HSD.jpg ,20,1,0.918367937,1,10,1,4
1,1,17,353,folder/02shapebCFSdim_m9HSD.jpg ,2,1,1.508134686,1,10,2,4
1,1,17,354,folder/07shapebCFSdim_m4HSD.jpg ,7,1,1.177984937,0,10,2,3
1,1,17,355,folder/13shapebCFSdim_p2HSD.jpg ,13,1,1.949827447,1,10,1,4
1,1,17,356,folder/08shapebCFSdim_m3HSD.jpg ,8,1,0.907474207,1,9,1,3
1,1,17,357,folder/06shapebCFSdim_m5HSD.jpg ,6,1,1.087853053,1,10,1,4
1,1,18,358,folder/11shapebCFSdim_0HSD.jpg  ,11,1,0.958000388,1,9,2,3
1,1,18,359,folder/21shapebCFSdim_p10HSD.jpg,21,1,0.957293754,1,9,1,3
1,1,18,360,folder/20shapebCFSdim_p9HSD.jpg ,20,1,1.488292957,1,9,2,3
1,1,18,361,folder/02shapebCFSdim_m9HSD.jpg ,2,1,1.836618621,1,9,2,3
1,1,18,362,folder/14shapebCFSdim_p3HSD.jpg ,14,1,0.997775908,1,9,2,3
1,1,18,363,folder/18shapebCFSdim_p7HSD.jpg ,18,1,2.027420003,1,10,1,4
1,1,18,364,folder/04shapebCFSdim_m7HSD.jpg ,4,1,1.316521857,1,9,2,3
1,1,18,365,folder/12shapebCFSdim_p1HSD.jpg ,12,1,1.576769601,1,10,1,4
1,1,18,366,folder/19shapebCFSdim_p8HSD.jpg ,19,1,1.136511568,1,9,2,3
1,1,18,367,folder/09shapebCFSdim_m2HSD.jpg ,9,1,1.327353694,1,9,2,3
1,1,18,368,folder/17shapebCFSdim_p6HSD.jpg ,17,1,0.986731023,1,9,1,3
1,1,18,369,folder/05shapebCFSdim_m6HSD.jpg ,5,1,0.776801387,1,9,1,3
1,1,18,370,folder/01shapebCFSdim_m10HSD.jpg,1,1,1.417188245,1,10,1,4
1,1,18,371,folder/08shapebCFSdim_m3HSD.jpg ,8,1,0.906637879,1,10,1,4
1,1,18,372,folder/07shapebCFSdim_m4HSD.jpg ,7,1,1.31749721,1,9,2,3
1,1,18,373,folder/15shapebCFSdim_p4HSD.jpg ,15,1,1.189158894,1,10,1,4
1,1,18,374,folder/13shapebCFSdim_p2HSD.jpg ,13,1,1.777601327,1,9,2,3
1,1,18,375,folder/06shapebCFSdim_m5HSD.jpg ,6,1,1.826369321,1,10,2,4
1,1,18,376,folder/10shapebCFSdim_m1HSD.jpg ,10,1,1.917007543,1,10,1,4
1,1,18,377,folder/03shapebCFSdim_m8HSD.jpg ,3,1,1.395882241,1,10,2,4
1,1,18,378,folder/16shapebCFSdim_p5HSD.jpg ,16,1,1.066421709,1,9,1,3
1,1,19,379,folder/16shapebCFSdim_p5HSD.jpg ,16,1,1.096888759,1,9,2,3
1,1,19,380,folder/06shapebCFSdim_m5HSD.jpg ,6,1,3.396538179,0,10,2,3
1,1,19,381,folder/15shapebCFSdim_p4HSD.jpg ,15,1,1.42631228,1,9,1,3
1,1,19,382,folder/08shapebCFSdim_m3HSD.jpg ,8,1,3.296578425,1,9,1,3
1,1,19,383,folder/12shapebCFSdim_p1HSD.jpg ,12,1,1.379145098,1,10,2,4
1,1,19,384,folder/10shapebCFSdim_m1HSD.jpg ,10,1,0.845321226,1,9,2,3
1,1,19,385,folder/11shapebCFSdim_0HSD.jpg  ,11,1,1.017293866,1,10,1,4
1,1,19,386,folder/09shapebCFSdim_m2HSD.jpg ,9,1,0.897001907,1,9,1,3
1,1,19,387,folder/21shapebCFSdim_p10HSD.jpg,21,1,0.866389611,1,9,1,3
1,1,19,388,folder/20shapebCFSdim_p9HSD.jpg ,20,1,0.867390158,1,9,2,3
1,1,19,389,folder/07shapebCFSdim_m4HSD.jpg ,7,1,1.037089254,1,10,1,4
1,1,19,390,folder/17shapebCFSdim_p6HSD.jpg ,17,1,1.386447498,1,10,1,4
1,1,19,391,folder/01shapebCFSdim_m10HSD.jpg,1,1,0.929689629,1,9,1,3
1,1,19,392,folder/13shapebCFSdim_p2HSD.jpg ,13,1,1.207028456,1,10,2,4
1,1,19,393,folder/05shapebCFSdim_m6HSD.jpg ,5,1,1.37659257,1,10,1,4
1,1,19,394,folder/02shapebCFSdim_m9HSD.jpg ,2,1,1.130166171,1,10,2,4
1,1,19,395,folder/04shapebCFSdim_m7HSD.jpg ,4,1,1.1567542,1,10,1,4
1,1,19,396,folder/03shapebCFSdim_m8HSD.jpg ,3,1,0.966597558,1,10,1,4
1,1,19,397,folder/18shapebCFSdim_p7HSD.jpg ,18,1,1.386340819,1,9,2,3
1,1,19,398,folder/19shapebCFSdim_p8HSD.jpg ,19,1,1.035923557,1,9,1,3
1,1,19,399,folder/14shapebCFSdim_p3HSD.jpg ,14,1,1.856438578,1,10,1,4
1,1,20,400,folder/11shapebCFSdim_0HSD.jpg  ,11,1,0.996523125,1,9,2,3
1,1,20,401,folder/13shapebCFSdim_p2HSD.jpg ,13,1,1.066778136,1,9,1,3
1,1,20,402,folder/03shapebCFSdim_m8HSD.jpg ,3,1,1.225355214,1,10,2,4
1,1,20,403,folder/20shapebCFSdim_p9HSD.jpg ,20,1,1.934936509,1,10,1,4
1,1,20,404,folder/18shapebCFSdim_p7HSD.jpg ,18,1,0.88594116,1,9,1,3
1,1,20,405,folder/12shapebCFSdim_p1HSD.jpg ,12,1,1.212413428,1,9,2,3
1,1,20,406,folder/16shapebCFSdim_p5HSD.jpg ,16,1,1.110009069,1,9,2,3
1,1,20,407,folder/17shapebCFSdim_p6HSD.jpg ,17,1,1.186091009,1,10,1,4
1,1,20,408,folder/09shapebCFSdim_m2HSD.jpg ,9,1,0.646091867,1,9,1,3
1,1,20,409,folder/05shapebCFSdim_m6HSD.jpg ,5,1,0.896137276,1,10,1,4
1,1,20,410,folder/14shapebCFSdim_p3HSD.jpg ,14,1,1.315984728,1,10,1,4
1,1,20,411,folder/10shapebCFSdim_m1HSD.jpg ,10,1,1.655567354,1,10,2,4
1,1,20,412,folder/15shapebCFSdim_p4HSD.jpg ,15,1,1.016106709,1,10,2,4
1,1,20,413,folder/02shapebCFSdim_m9HSD.jpg ,2,1,1.505890999,1,10,1,4
1,1,20,414,folder/19shapebCFSdim_p8HSD.jpg ,19,1,0.835820547,1,9,1,3
1,1,20,415,folder/21shapebCFSdim_p10HSD.jpg,21,1,1.295843488,1,10,1,4
1,1,20,416,folder/06shapebCFSdim_m5HSD.jpg ,6,1,1.164928074,1,9,2,3
1,1,20,417,folder/07shapebCFSdim_m4HSD.jpg ,7,1,1.285089094,1,10,2,4
1,1,20,418,folder/04shapebCFSdim_m7HSD.jpg ,4,1,1.584686885,1,10,1,4
1,1,20,419,folder/01shapebCFSdim_m10HSD.jpg,1,1,0.944513698,1,9,2,3
1,1,20,420,folder/08shapebCFSdim_m3HSD.jpg ,8,1,1.655752409,1,9,1,3
1,1,21,421,folder/01shapebCFSdim_m10HSD.jpg,1,1,0.974490583,1,9,2,3
1,1,21,422,folder/07shapebCFSdim_m4HSD.jpg ,7,1,1.165637196,0,10,2,3
1,1,21,423,folder/21shapebCFSdim_p10HSD.jpg,21,1,1.625194231,1,10,2,4
1,1,21,424,folder/09shapebCFSdim_m2HSD.jpg ,9,1,1.015283132,1,9,1,3
1,1,21,425,folder/08shapebCFSdim_m3HSD.jpg ,8,1,1.155652884,1,9,1,3
1,1,21,426,folder/12shapebCFSdim_p1HSD.jpg ,12,1,1.125393905,1,9,2,3
1,1,21,427,folder/04shapebCFSdim_m7HSD.jpg ,4,1,1.205637892,1,9,2,3
1,1,21,428,folder/13shapebCFSdim_p2HSD.jpg ,13,1,1.675397886,1,10,2,4
1,1,21,429,folder/15shapebCFSdim_p4HSD.jpg ,15,1,1.424843651,1,10,1,4
1,1,21,430,folder/06shapebCFSdim_m5HSD.jpg ,6,1,1.134504255,1,10,2,4
1,1,21,431,folder/20shapebCFSdim_p9HSD.jpg ,20,1,1.155586015,1,10,1,4
1,1,21,432,folder/18shapebCFSdim_p7HSD.jpg ,18,1,0.955691388,1,9,2,3
1,1,21,433,folder/02shapebCFSdim_m9HSD.jpg ,2,1,1.724313925,1,10,1,4
1,1,21,434,folder/19shapebCFSdim_p8HSD.jpg ,19,1,0.866761278,1,9,1,3
1,1,21,435,folder/03shapebCFSdim_m8HSD.jpg ,3,1,0.854852384,1,9,2,3
1,1,21,436,folder/11shapebCFSdim_0HSD.jpg  ,11,1,0.878549497,1,10,2,4
1,1,21,437,folder/17shapebCFSdim_p6HSD.jpg ,17,1,0.664723424,1,10,1,4
1,1,21,438,folder/14shapebCFSdim_p3HSD.jpg ,14,1,0.895308412,1,9,1,3
1,1,21,439,folder/16shapebCFSdim_p5HSD.jpg ,16,1,0.856427071,1,9,1,3
1,1,21,440,folder/05shapebCFSdim_m6HSD.jpg ,5,1,0.934382585,1,10,2,4
1,1,21,441,folder/10shapebCFSdim_m1HSD.jpg ,10,1,1.305135784,1,10,1,4
1,1,22,442,folder/17shapebCFSdim_p6HSD.jpg ,17,1,1.164448484,1,10,1,4
1,1,22,443,folder/13shapebCFSdim_p2HSD.jpg ,13,1,1.124993002,1,10,1,4
1,1,22,444,folder/20shapebCFSdim_p9HSD.jpg ,20,1,1.685056873,1,10,2,4
1,1,22,445,folder/11shapebCFSdim_0HSD.jpg  ,11,1,2.435134627,1,10,1,4
1,1,22,446,folder/15shapebCFSdim_p4HSD.jpg ,15,1,1.284995478,1,10,2,4
1,1,22,447,folder/10shapebCFSdim_m1HSD.jpg ,10,1,0.825086059,1,9,2,3
1,1,22,448,folder/06shapebCFSdim_m5HSD.jpg ,6,1,1.014110593,1,10,1,4
1,1,22,449,folder/02shapebCFSdim_m9HSD.jpg ,2,1,1.1851141,1,10,1,4
1,1,22,450,folder/19shapebCFSdim_p8HSD.jpg ,19,1,1.444864527,1,10,2,4
1,1,22,451,folder/01shapebCFSdim_m10HSD.jpg,1,1,0.835056064,1,9,1,3
1,1,22,452,folder/08shapebCFSdim_m3HSD.jpg ,8,1,1.894568499,1,9,2,3
1,1,22,453,folder/16shapebCFSdim_p5HSD.jpg ,16,1,2.193982478,1,9,1,3
1,1,22,454,folder/18shapebCFSdim_p7HSD.jpg ,18,1,1.754529672,1,9,1,3
1,1,22,455,folder/14shapebCFSdim_p3HSD.jpg ,14,1,1.318251119,1,10,1,4
1,1,22,456,folder/03shapebCFSdim_m8HSD.jpg ,3,1,1.084908641,1,9,2,3
1,1,22,457,folder/07shapebCFSdim_m4HSD.jpg ,7,1,1.654974552,1,10,1,4
1,1,22,458,folder/21shapebCFSdim_p10HSD.jpg,21,1,0.825334562,1,9,1,3
1,1,22,459,folder/12shapebCFSdim_p1HSD.jpg ,12,1,1.181096054,1,10,2,4
1,1,22,460,folder/04shapebCFSdim_m7HSD.jpg ,4,1,1.024400325,1,9,2,3
1,1,22,461,folder/05shapebCFSdim_m6HSD.jpg ,5,1,0.824103863,1,9,2,3
1,1,22,462,folder/09shapebCFSdim_m2HSD.jpg ,9,1,1.104360353,1,10,1,4
1,1,23,463,folder/17shapebCFSdim_p6HSD.jpg ,17,1,0.934343086,1,9,2,3
1,1,23,464,folder/08shapebCFSdim_m3HSD.jpg ,8,1,0.714665201,1,9,2,3
1,1,23,465,folder/20shapebCFSdim_p9HSD.jpg ,20,1,0.756398581,1,10,1,4
1,1,23,466,folder/10shapebCFSdim_m1HSD.jpg ,10,1,1.004337773,1,9,2,3
1,1,23,467,folder/05shapebCFSdim_m6HSD.jpg ,5,1,1.163667205,1,10,1,4
1,1,23,468,folder/02shapebCFSdim_m9HSD.jpg ,2,1,0.983602178,1,9,1,3
1,1,23,469,folder/14shapebCFSdim_p3HSD.jpg ,14,1,1.063840878,1,10,2,4
1,1,23,470,folder/11shapebCFSdim_0HSD.jpg  ,11,1,0.964957869,1,9,2,3
1,1,23,471,folder/06shapebCFSdim_m5HSD.jpg ,6,1,0.834717987,1,9,2,3
1,1,23,472,folder/03shapebCFSdim_m8HSD.jpg ,3,1,1.204126032,1,10,2,4
1,1,23,473,folder/04shapebCFSdim_m7HSD.jpg ,4,1,1.122780106,1,10,1,4
1,1,23,474,folder/13shapebCFSdim_p2HSD.jpg ,13,1,0.994140414,1,9,2,3
1,1,23,475,folder/01shapebCFSdim_m10HSD.jpg,1,1,1.204073159,1,10,2,4
1,1,23,476,folder/07shapebCFSdim_m4HSD.jpg ,7,1,1.124565041,1,10,1,4
1,1,23,477,folder/12shapebCFSdim_p1HSD.jpg ,12,1,0.793890604,1,9,1,3
1,1,23,478,folder/09shapebCFSdim_m2HSD.jpg ,9,1,0.943980923,1,9,2,3
1,1,23,479,folder/21shapebCFSdim_p10HSD.jpg,21,1,1.154553745,1,10,1,4
1,1,23,480,folder/16shapebCFSdim_p5HSD.jpg ,16,1,1.06375286,1,9,1,3
1,1,23,481,folder/15shapebCFSdim_p4HSD.jpg ,15,1,3.804008343,0,10,2,3
1,1,23,482,folder/18shapebCFSdim_p7HSD.jpg ,18,1,2.076937862,1,10,2,4
1,1,23,483,folder/19shapebCFSdim_p8HSD.jpg ,19,1,2.023117375,1,10,2,4
1,1,24,484,folder/21shapebCFSdim_p10HSD.jpg,21,1,3.743226953,1,10,1,4
1,1,24,485,folder/09shapebCFSdim_m2HSD.jpg ,9,1,1.313007349,1,9,2,3
1,1,24,486,folder/19shapebCFSdim_p8HSD.jpg ,19,1,2.803922502,1,10,2,4
1,1,24,487,folder/04shapebCFSdim_m7HSD.jpg ,4,1,1.022030676,1,9,1,3
1,1,24,488,folder/15shapebCFSdim_p4HSD.jpg ,15,1,3.509340815,1,10,1,4
1,1,24,489,folder/18shapebCFSdim_p7HSD.jpg ,18,1,0.812457157,1,9,1,3
1,1,24,490,folder/08shapebCFSdim_m3HSD.jpg ,8,1,1.454099907,1,9,1,3
1,1,24,491,folder/02shapebCFSdim_m9HSD.jpg ,2,1,1.4035476,1,9,2,3
1,1,24,492,folder/05shapebCFSdim_m6HSD.jpg ,5,1,1.402367596,1,10,2,4
1,1,24,493,folder/14shapebCFSdim_p3HSD.jpg ,14,1,0.992347704,1,10,2,4
1,1,24,494,folder/12shapebCFSdim_p1HSD.jpg ,12,1,1.173599889,1,10,1,4
1,1,24,495,folder/20shapebCFSdim_p9HSD.jpg ,20,1,1.553389727,0,10,2,3
1,1,24,496,folder/03shapebCFSdim_m8HSD.jpg ,3,1,1.245233021,1,10,2,4
1,1,24,497,folder/16shapebCFSdim_p5HSD.jpg ,16,1,0.853728675,1,9,1,3
1,1,24,498,folder/13shapebCFSdim_p2HSD.jpg ,13,1,0.916687816,1,9,1,3
1,1,24,499,folder/11shapebCFSdim_0HSD.jpg  ,11,1,0.942744003,1,9,2,3
1,1,24,500,folder/06shapebCFSdim_m5HSD.jpg ,6,1,0.883839298,1,9,1,3
1,1,24,501,folder/01shapebCFSdim_m10HSD.jpg,1,1,0.80303019,1,10,1,4
1,1,24,502,folder/10shapebCFSdim_m1HSD.jpg ,10,1,1.023726038,1,10,2,4
1,1,24,503,folder/07shapebCFSdim_m4HSD.jpg ,7,1,1.503357132,1,10,2,4
1,1,24,504,folder/17shapebCFSdim_p6HSD.jpg ,17,1,0.772476055,1,9,2,3
1,1,25,505,folder/06shapebCFSdim_m5HSD.jpg ,6,1,1.232582037,1,10,2,4
1,1,25,506,folder/16shapebCFSdim_p5HSD.jpg ,16,1,3.261611249,1,10,2,4
1,1,25,507,folder/13shapebCFSdim_p2HSD.jpg ,13,1,1.330823415,1,9,2,3
1,1,25,508,folder/08shapebCFSdim_m3HSD.jpg ,8,1,1.672800571,1,10,1,4
1,1,25,509,folder/20shapebCFSdim_p9HSD.jpg ,20,1,1.08166472,1,9,1,3
1,1,25,510,folder/10shapebCFSdim_m1HSD.jpg ,10,1,1.271346125,1,10,2,4
1,1,25,511,folder/17shapebCFSdim_p6HSD.jpg ,17,1,0.903228495,1,9,2,3
1,1,25,512,folder/03shapebCFSdim_m8HSD.jpg ,3,1,0.812498212,1,9,2,3
1,1,25,513,folder/15shapebCFSdim_p4HSD.jpg ,15,1,0.862618203,1,9,1,3
1,1,25,514,folder/14shapebCFSdim_p3HSD.jpg ,14,1,1.032759256,1,9,2,3
1,1,25,515,folder/18shapebCFSdim_p7HSD.jpg ,18,1,1.712935006,1,9,2,3
1,1,25,516,folder/07shapebCFSdim_m4HSD.jpg ,7,1,0.911853035,1,9,1,3
1,1,25,517,folder/02shapebCFSdim_m9HSD.jpg ,2,1,0.862969031,1,9,1,3
1,1,25,518,folder/09shapebCFSdim_m2HSD.jpg ,9,1,1.082530284,1,10,1,4
1,1,25,519,folder/11shapebCFSdim_0HSD.jpg  ,11,1,1.722294482,1,10,1,4
1,1,25,520,folder/01shapebCFSdim_m10HSD.jpg,1,1,1.15213651,1,9,1,3
1,1,25,521,folder/12shapebCFSdim_p1HSD.jpg ,12,1,1.742705686,1,10,1,4
1,1,25,522,folder/05shapebCFSdim_m6HSD.jpg ,5,1,1.031428719,0,10,1,3
1,1,25,523,folder/04shapebCFSdim_m7HSD.jpg ,4,1,0.871620941,1,9,1,3
1,1,25,524,folder/21shapebCFSdim_p10HSD.jpg,21,1,1.072339455,1,10,2,4
1,1,25,525,folder/19shapebCFSdim_p8HSD.jpg ,19,1,0.962695833,1,9,1,3
1,1,26,526,folder/10shapebCFSdim_m1HSD.jpg ,10,1,1.322212871,1,9,2,3
1,1,26,527,folder/03shapebCFSdim_m8HSD.jpg ,3,1,1.17170983,1,9,1,3
1,1,26,528,folder/18shapebCFSdim_p7HSD.jpg ,18,1,1.31183201,1,9,1,3
1,1,26,529,folder/21shapebCFSdim_p10HSD.jpg,21,1,1.112827829,1,10,1,4
1,1,26,530,folder/20shapebCFSdim_p9HSD.jpg ,20,1,1.242553287,1,10,1,4
1,1,26,531,folder/06shapebCFSdim_m5HSD.jpg ,6,1,1.181715291,1,9,2,3
1,1,26,532,folder/01shapebCFSdim_m10HSD.jpg,1,1,1.372223383,1,10,2,4
1,1,26,533,folder/13shapebCFSdim_p2HSD.jpg ,13,1,1.341878252,1,10,2,4
1,1,26,534,folder/04shapebCFSdim_m7HSD.jpg ,4,1,0.97194863,1,9,2,3
1,1,26,535,folder/11shapebCFSdim_0HSD.jpg  ,11,1,0.832073709,1,9,1,3
1,1,26,536,folder/17shapebCFSdim_p6HSD.jpg ,17,1,0.94118238,1,9,1,3
1,1,26,537,folder/09shapebCFSdim_m2HSD.jpg ,9,1,0.881575084,1,9,1,3
1,1,26,538,folder/08shapebCFSdim_m3HSD.jpg ,8,1,0.88179995,1,9,1,3
1,1,26,539,folder/19shapebCFSdim_p8HSD.jpg ,19,1,1.091505652,1,10,1,4
1,1,26,540,folder/16shapebCFSdim_p5HSD.jpg ,16,1,1.231200494,1,10,1,4
1,1,26,541,folder/14shapebCFSdim_p3HSD.jpg ,14,1,0.766187574,1,9,2,3
1,1,26,542,folder/07shapebCFSdim_m4HSD.jpg ,7,1,1.225430481,1,9,1,3
1,1,26,543,folder/02shapebCFSdim_m9HSD.jpg ,2,1,1.021769421,1,10,2,4
1,1,26,544,folder/12shapebCFSdim_p1HSD.jpg ,12,1,1.044498956,0,10,1,3
1,1,26,545,folder/05shapebCFSdim_m6HSD.jpg ,5,1,1.002212274,1,10,1,4
1,1,26,546,folder/15shapebCFSdim_p4HSD.jpg ,15,1,0.918278364,1,9,1,3
1,1,27,547,folder/06shapebCFSdim_m5HSD.jpg ,6,1,1.211838977,1,10,1,4
1,1,27,548,folder/15shapebCFSdim_p4HSD.jpg ,15,1,0.981869494,1,9,1,3
1,1,27,549,folder/03shapebCFSdim_m8HSD.jpg ,3,1,2.441404447,1,10,2,4
1,1,27,550,folder/21shapebCFSdim_p10HSD.jpg,21,1,1.019889315,1,9,2,3
1,1,27,551,folder/07shapebCFSdim_m4HSD.jpg ,7,1,1.152329963,1,10,1,4
1,1,27,552,folder/13shapebCFSdim_p2HSD.jpg ,13,1,0.921777943,1,9,2,3
1,1,27,553,folder/10shapebCFSdim_m1HSD.jpg ,10,1,0.909047649,1,10,2,4
1,1,27,554,folder/19shapebCFSdim_p8HSD.jpg ,19,1,1.281394507,1,10,1,4
1,1,27,555,folder/14shapebCFSdim_p3HSD.jpg ,14,1,1.261746542,1,10,2,4
1,1,27,556,folder/12shapebCFSdim_p1HSD.jpg ,12,1,0.791720939,1,9,1,3
1,1,27,557,folder/11shapebCFSdim_0HSD.jpg  ,11,1,1.131428284,1,10,2,4
1,1,27,558,folder/01shapebCFSdim_m10HSD.jpg,1,1,0.820715006,1,9,1,3
1,1,27,559,folder/08shapebCFSdim_m3HSD.jpg ,8,1,1.070617347,0,10,1,3
1,1,27,560,folder/04shapebCFSdim_m7HSD.jpg ,4,1,0.98149876,1,9,1,3
1,1,27,561,folder/05shapebCFSdim_m6HSD.jpg ,5,1,1.151188215,1,10,1,4
1,1,27,562,folder/02shapebCFSdim_m9HSD.jpg ,2,1,1.39050069,1,10,1,4
1,1,27,563,folder/18shapebCFSdim_p7HSD.jpg ,18,1,1.407302836,1,9,2,3
1,1,27,564,folder/09shapebCFSdim_m2HSD.jpg ,9,1,1.111318146,1,10,2,4
1,1,27,565,folder/17shapebCFSdim_p6HSD.jpg ,17,1,1.250560144,1,10,2,4
1,1,27,566,folder/20shapebCFSdim_p9HSD.jpg ,20,1,1.600239671,1,10,2,4
1,1,27,567,folder/16shapebCFSdim_p5HSD.jpg ,16,1,1.950226795,1,9,2,3
1,1,28,568,folder/04shapebCFSdim_m7HSD.jpg ,4,1,1.068878443,1,10,1,4
1,1,28,569,folder/09shapebCFSdim_m2HSD.jpg ,9,1,1.510164081,1,10,1,4
1,1,28,570,folder/15shapebCFSdim_p4HSD.jpg ,15,1,1.319632662,1,10,2,4
1,1,28,571,folder/12shapebCFSdim_p1HSD.jpg ,12,1,1.320735845,1,10,1,4
1,1,28,572,folder/11shapebCFSdim_0HSD.jpg  ,11,1,0.881906319,1,9,1,3
1,1,28,573,folder/19shapebCFSdim_p8HSD.jpg ,19,1,0.991110784,1,10,2,4
1,1,28,574,folder/10shapebCFSdim_m1HSD.jpg ,10,1,0.990809096,1,9,1,3
1,1,28,575,folder/17shapebCFSdim_p6HSD.jpg ,17,1,0.870513093,0,9,1,4
1,1,28,576,folder/03shapebCFSdim_m8HSD.jpg ,3,1,1.170703063,1,9,1,3
1,1,28,577,folder/21shapebCFSdim_p10HSD.jpg,21,1,0.810971422,1,10,1,4
1,1,28,578,folder/07shapebCFSdim_m4HSD.jpg ,7,1,1.321025092,1,10,2,4
1,1,28,579,folder/02shapebCFSdim_m9HSD.jpg ,2,1,1.550533334,1,10,2,4
1,1,28,580,folder/18shapebCFSdim_p7HSD.jpg ,18,1,1.092374016,1,9,2,3
1,1,28,581,folder/16shapebCFSdim_p5HSD.jpg ,16,1,0.890644691,1,9,1,3
1,1,28,582,folder/08shapebCFSdim_m3HSD.jpg ,8,1,0.739971523,1,9,1,3
1,1,28,583,folder/13shapebCFSdim_p2HSD.jpg ,13,1,1.151248241,1,10,2,4
1,1,28,584,folder/06shapebCFSdim_m5HSD.jpg ,6,1,0.771646258,1,9,1,3
1,1,28,585,folder/14shapebCFSdim_p3HSD.jpg ,14,1,2.320351115,1,10,1,4
1,1,28,586,folder/01shapebCFSdim_m10HSD.jpg,1,1,1.538556327,0,10,2,3
1,1,28,587,folder/05shapebCFSdim_m6HSD.jpg ,5,1,1.039621565,1,9,2,3
1,1,28,588,folder/20shapebCFSdim_p9HSD.jpg ,20,1,1.079474839,1,10,2,4
1,1,29,589,folder/20shapebCFSdim_p9HSD.jpg ,20,1,1.460406737,1,10,2,4
1,1,29,590,folder/16shapebCFSdim_p5HSD.jpg ,16,1,0.748819063,1,9,2,3
1,1,29,591,folder/15shapebCFSdim_p4HSD.jpg ,15,1,1.520493312,1,10,1,4
1,1,29,592,folder/04shapebCFSdim_m7HSD.jpg ,4,1,0.90811335,1,9,2,3
1,1,29,593,folder/03shapebCFSdim_m8HSD.jpg ,3,1,2.159307972,1,10,1,4
1,1,29,594,folder/11shapebCFSdim_0HSD.jpg  ,11,1,1.873244768,1,10,1,4
1,1,29,595,folder/07shapebCFSdim_m4HSD.jpg ,7,1,0.74985351,1,9,1,3
1,1,29,596,folder/08shapebCFSdim_m3HSD.jpg ,8,1,1.319646658,1,10,2,4
1,1,29,597,folder/17shapebCFSdim_p6HSD.jpg ,17,1,1.820350804,1,10,1,4
1,1,29,598,folder/13shapebCFSdim_p2HSD.jpg ,13,1,2.310163397,1,10,2,4
1,1,29,599,folder/09shapebCFSdim_m2HSD.jpg ,9,1,2.989256803,1,10,1,4
1,1,29,600,folder/10shapebCFSdim_m1HSD.jpg ,10,1,0.909060712,1,9,2,3
1,1,29,601,folder/21shapebCFSdim_p10HSD.jpg,21,1,0.910002165,0,9,2,4
1,1,29,602,folder/12shapebCFSdim_p1HSD.jpg ,12,1,0.740379579,1,9,1,3
1,1,29,603,folder/19shapebCFSdim_p8HSD.jpg ,19,1,1.619121286,1,10,1,4
1,1,29,604,folder/18shapebCFSdim_p7HSD.jpg ,18,1,2.957270117,1,10,2,4
1,1,29,605,folder/05shapebCFSdim_m6HSD.jpg ,5,1,2.326835537,0,10,1,3
1,1,29,606,folder/02shapebCFSdim_m9HSD.jpg ,2,1,1.059690027,1,9,2,3
1,1,29,607,folder/06shapebCFSdim_m5HSD.jpg ,6,1,1.141354746,1,10,1,4
1,1,29,608,folder/01shapebCFSdim_m10HSD.jpg,1,1,1.498088792,1,10,2,4
1,1,29,609,folder/14shapebCFSdim_p3HSD.jpg ,14,1,1.088720794,1,9,1,3
10,1,1,1,folder/08shapebCFSdim_m3HSD.jpg ,8,1,1.645861461,1,9,1,3
10,1,1,2,folder/15shapebCFSdim_p4HSD.jpg ,15,1,1.230859904,1,10,2,4
10,1,1,3,folder/06shapebCFSdim_m5HSD.jpg ,6,1,1.036450009,1,10,2,4
10,1,1,4,folder/04shapebCFSdim_m7HSD.jpg ,4,1,1.178184734,1,9,2,3
10,1,1,5,folder/18shapebCFSdim_p7HSD.jpg ,18,1,1.117972054,1,10,1,4
10,1,1,6,folder/20shapebCFSdim_p9HSD.jpg ,20,1,1.187862666,1,10,2,4
10,1,1,7,folder/21shapebCFSdim_p10HSD.jpg,21,1,1.307879971,1,10,2,4
10,1,1,8,folder/19shapebCFSdim_p8HSD.jpg ,19,1,0.708180352,1,10,1,4
10,1,1,9,folder/09shapebCFSdim_m2HSD.jpg ,9,1,1.366930067,1,10,2,4
10,1,1,10,folder/03shapebCFSdim_m8HSD.jpg ,3,1,1.166379131,1,10,1,4
10,1,1,11,folder/14shapebCFSdim_p3HSD.jpg ,14,1,1.027370785,1,10,2,4
10,1,1,12,folder/07shapebCFSdim_m4HSD.jpg ,7,1,0.997088565,1,9,1,3
10,1,1,13,folder/11shapebCFSdim_0HSD.jpg  ,11,1,1.627804717,1,10,1,4
10,1,1,14,folder/01shapebCFSdim_m10HSD.jpg,1,1,1.017151372,1,9,1,3
10,1,1,15,folder/02shapebCFSdim_m9HSD.jpg ,2,1,1.50722727,1,10,1,4
10,1,1,16,folder/12shapebCFSdim_p1HSD.jpg ,12,1,1.117265111,1,9,1,3
10,1,1,17,folder/05shapebCFSdim_m6HSD.jpg ,5,1,1.367394417,1,10,2,4
10,1,1,18,folder/10shapebCFSdim_m1HSD.jpg ,10,1,1.377218216,1,10,2,4
10,1,1,19,folder/16shapebCFSdim_p5HSD.jpg ,16,1,2.047588479,1,10,1,4
10,1,1,20,folder/13shapebCFSdim_p2HSD.jpg ,13,1,1.587011971,1,9,1,3
10,1,1,21,folder/17shapebCFSdim_p6HSD.jpg ,17,1,1.822274328,1,9,1,3
10,1,2,22,folder/15shapebCFSdim_p4HSD.jpg ,15,1,1.568909196,1,10,1,4
10,1,2,23,folder/18shapebCFSdim_p7HSD.jpg ,18,1,1.248901408,1,10,1,4
10,1,2,24,folder/21shapebCFSdim_p10HSD.jpg,21,1,1.709000816,1,9,2,3
10,1,2,25,folder/02shapebCFSdim_m9HSD.jpg ,2,1,1.00905061,1,10,1,4
10,1,2,26,folder/05shapebCFSdim_m6HSD.jpg ,5,1,1.328580986,1,10,1,4
10,1,2,27,folder/13shapebCFSdim_p2HSD.jpg ,13,1,1.709090078,1,9,1,3
10,1,2,28,folder/14shapebCFSdim_p3HSD.jpg ,14,1,1.978704631,1,9,2,3
10,1,2,29,folder/20shapebCFSdim_p9HSD.jpg ,20,1,1.438768893,1,10,1,4
10,1,2,30,folder/07shapebCFSdim_m4HSD.jpg ,7,1,2.99851458,1,10,2,4
10,1,2,31,folder/16shapebCFSdim_p5HSD.jpg ,16,1,2.758531288,1,9,2,3
10,1,2,32,folder/09shapebCFSdim_m2HSD.jpg ,9,1,1.488838359,1,9,2,3
10,1,2,33,folder/01shapebCFSdim_m10HSD.jpg,1,1,1.908433022,1,10,2,4
10,1,2,34,folder/03shapebCFSdim_m8HSD.jpg ,3,1,4.338196403,1,9,2,3
10,1,2,35,folder/11shapebCFSdim_0HSD.jpg  ,11,1,1.148144174,1,10,1,4
10,1,2,36,folder/17shapebCFSdim_p6HSD.jpg ,17,1,1.137850116,1,9,1,3
10,1,2,37,folder/06shapebCFSdim_m5HSD.jpg ,6,1,1.208848573,1,9,2,3
10,1,2,38,folder/12shapebCFSdim_p1HSD.jpg ,12,1,1.548756505,1,10,1,4
10,1,2,39,folder/08shapebCFSdim_m3HSD.jpg ,8,1,1.45823579,1,9,1,3
10,1,2,40,folder/19shapebCFSdim_p8HSD.jpg ,19,1,1.937838795,1,9,2,3
10,1,2,41,folder/10shapebCFSdim_m1HSD.jpg ,10,1,1.808442757,1,9,1,3
10,1,2,42,folder/04shapebCFSdim_m7HSD.jpg ,4,1,1.628119156,1,10,1,4
10,1,3,43,folder/03shapebCFSdim_m8HSD.jpg ,3,1,2.338379593,1,10,2,4
10,1,3,44,folder/08shapebCFSdim_m3HSD.jpg ,8,1,1.718246745,1,9,2,3
10,1,3,45,folder/13shapebCFSdim_p2HSD.jpg ,13,1,1.318008256,1,9,1,3
10,1,3,46,folder/06shapebCFSdim_m5HSD.jpg ,6,1,1.408385281,1,9,1,3
10,1,3,47,folder/18shapebCFSdim_p7HSD.jpg ,18,1,1.707902924,1,10,1,4
10,1,3,48,folder/21shapebCFSdim_p10HSD.jpg,21,1,1.198224525,1,10,1,4
10,1,3,49,folder/15shapebCFSdim_p4HSD.jpg ,15,1,1.578234745,1,10,2,4
10,1,3,50,folder/07shapebCFSdim_m4HSD.jpg ,7,1,1.278097867,1,10,2,4
10,1,3,51,folder/01shapebCFSdim_m10HSD.jpg,1,1,1.278211077,1,10,2,4
10,1,3,52,folder/17shapebCFSdim_p6HSD.jpg ,17,1,2.118237352,1,10,2,4
10,1,3,53,folder/19shapebCFSdim_p8HSD.jpg ,19,1,1.417934452,1,10,2,4
10,1,3,54,folder/14shapebCFSdim_p3HSD.jpg ,14,1,1.467895061,1,10,2,4
10,1,3,55,folder/12shapebCFSdim_p1HSD.jpg ,12,1,1.268038938,1,10,2,4
10,1,3,56,folder/02shapebCFSdim_m9HSD.jpg ,2,1,1.467991166,1,10,2,4
10,1,3,57,folder/20shapebCFSdim_p9HSD.jpg ,20,1,1.47757206,1,10,2,4
10,1,3,58,folder/16shapebCFSdim_p5HSD.jpg ,16,1,1.257546762,1,10,2,4
10,1,3,59,folder/11shapebCFSdim_0HSD.jpg  ,11,1,1.267704905,1,10,1,4
10,1,3,60,folder/04shapebCFSdim_m7HSD.jpg ,4,1,1.328094243,1,9,1,3
10,1,3,61,folder/09shapebCFSdim_m2HSD.jpg ,9,1,1.747714721,1,10,2,4
10,1,3,62,folder/05shapebCFSdim_m6HSD.jpg ,5,1,1.467541124,1,9,1,3
10,1,3,63,folder/10shapebCFSdim_m1HSD.jpg ,10,1,1.797324814,1,10,1,4
10,1,4,64,folder/16shapebCFSdim_p5HSD.jpg ,16,1,1.336973482,1,9,1,3
10,1,4,65,folder/08shapebCFSdim_m3HSD.jpg ,8,1,1.527588964,1,10,1,4
10,1,4,66,folder/01shapebCFSdim_m10HSD.jpg,1,1,1.496893713,1,10,1,4
10,1,4,67,folder/02shapebCFSdim_m9HSD.jpg ,2,1,2.087612079,1,10,2,4
10,1,4,68,folder/17shapebCFSdim_p6HSD.jpg ,17,1,2.017045004,1,9,1,3
10,1,4,69,folder/09shapebCFSdim_m2HSD.jpg ,9,1,1.976966043,1,10,1,4
10,1,4,70,folder/13shapebCFSdim_p2HSD.jpg ,13,1,1.657096658,1,9,2,3
10,1,4,71,folder/18shapebCFSdim_p7HSD.jpg ,18,1,3.997106293,1,10,2,4
10,1,4,72,folder/15shapebCFSdim_p4HSD.jpg ,15,1,1.137396031,1,9,1,3
10,1,4,73,folder/10shapebCFSdim_m1HSD.jpg ,10,1,1.46729231,1,9,1,3
10,1,4,74,folder/19shapebCFSdim_p8HSD.jpg ,19,1,1.877082457,1,9,2,3
10,1,4,75,folder/03shapebCFSdim_m8HSD.jpg ,3,1,1.477440811,1,9,2,3
10,1,4,76,folder/21shapebCFSdim_p10HSD.jpg,21,1,2.45770986,1,9,2,3
10,1,4,77,folder/20shapebCFSdim_p9HSD.jpg ,20,1,5.467212067,1,9,2,3
10,1,4,78,folder/05shapebCFSdim_m6HSD.jpg ,5,1,1.636415548,1,10,1,4
10,1,4,79,folder/06shapebCFSdim_m5HSD.jpg ,6,1,3.476640252,1,10,2,4
10,1,4,80,folder/07shapebCFSdim_m4HSD.jpg ,7,1,1.696883262,1,10,2,4
10,1,4,81,folder/14shapebCFSdim_p3HSD.jpg ,14,1,1.736174105,1,9,2,3
10,1,4,82,folder/11shapebCFSdim_0HSD.jpg  ,11,1,1.586947901,1,9,2,3
10,1,4,83,folder/04shapebCFSdim_m7HSD.jpg ,4,1,1.887047458,1,10,2,4
10,1,4,84,folder/12shapebCFSdim_p1HSD.jpg ,12,1,1.412186226,1,10,1,4
10,1,5,85,folder/08shapebCFSdim_m3HSD.jpg ,8,1,1.787296987,1,9,2,3
10,1,5,86,folder/05shapebCFSdim_m6HSD.jpg ,5,1,8.116661115,1,10,2,4
10,1,5,87,folder/13shapebCFSdim_p2HSD.jpg ,13,1,1.516789503,1,9,2,3
10,1,5,88,folder/11shapebCFSdim_0HSD.jpg  ,11,1,1.846099514,1,9,1,3
10,1,5,89,folder/16shapebCFSdim_p5HSD.jpg ,16,1,1.546024838,1,10,2,4
10,1,5,90,folder/18shapebCFSdim_p7HSD.jpg ,18,1,1.626769651,1,9,1,3
10,1,5,91,folder/09shapebCFSdim_m2HSD.jpg ,9,1,1.415800561,1,10,1,4
10,1,5,92,folder/15shapebCFSdim_p4HSD.jpg ,15,1,1.346106201,1,10,2,4
10,1,5,93,folder/10shapebCFSdim_m1HSD.jpg ,10,1,2.765308982,1,10,2,4
10,1,5,94,folder/19shapebCFSdim_p8HSD.jpg ,19,1,1.005666117,1,9,2,3
10,1,5,95,folder/01shapebCFSdim_m10HSD.jpg,1,1,1.125791967,1,10,1,4
10,1,5,96,folder/14shapebCFSdim_p3HSD.jpg ,14,1,1.635931605,1,10,1,4
10,1,5,97,folder/17shapebCFSdim_p6HSD.jpg ,17,1,2.775410209,1,10,2,4
10,1,5,98,folder/07shapebCFSdim_m4HSD.jpg ,7,1,1.215704643,1,10,2,4
10,1,5,99,folder/02shapebCFSdim_m9HSD.jpg ,2,1,1.465379552,1,9,1,3
10,1,5,100,folder/04shapebCFSdim_m7HSD.jpg ,4,1,1.835605161,1,10,1,4
10,1,5,101,folder/03shapebCFSdim_m8HSD.jpg ,3,1,1.365386176,1,9,1,3
10,1,5,102,folder/06shapebCFSdim_m5HSD.jpg ,6,1,1.47945776,1,10,2,4
10,1,5,103,folder/21shapebCFSdim_p10HSD.jpg,21,1,3.345428182,1,9,1,3
10,1,5,104,folder/20shapebCFSdim_p9HSD.jpg ,20,1,1.22490112,1,9,2,3
10,1,5,105,folder/12shapebCFSdim_p1HSD.jpg ,12,1,1.415452532,1,10,2,4
10,1,6,106,folder/17shapebCFSdim_p6HSD.jpg ,17,1,1.665875127,1,10,1,4
10,1,6,107,folder/05shapebCFSdim_m6HSD.jpg ,5,1,1.395692656,1,10,2,4
10,1,6,108,folder/20shapebCFSdim_p9HSD.jpg ,20,1,1.275221577,1,9,1,3
10,1,6,109,folder/11shapebCFSdim_0HSD.jpg  ,11,1,10.00466402,-1,10,1,0
10,1,6,110,folder/12shapebCFSdim_p1HSD.jpg ,12,1,2.365299403,1,9,1,3
10,1,6,111,folder/08shapebCFSdim_m3HSD.jpg ,8,1,2.105270721,1,9,1,3
10,1,6,112,folder/21shapebCFSdim_p10HSD.jpg,21,1,2.905722194,1,9,2,3
10,1,6,113,folder/15shapebCFSdim_p4HSD.jpg ,15,1,1.535239995,1,9,1,3
10,1,6,114,folder/13shapebCFSdim_p2HSD.jpg ,13,1,1.825297729,1,10,1,4
10,1,6,115,folder/06shapebCFSdim_m5HSD.jpg ,6,1,1.175577474,1,10,1,4
10,1,6,116,folder/16shapebCFSdim_p5HSD.jpg ,16,1,1.405979872,1,9,2,3
10,1,6,117,folder/14shapebCFSdim_p3HSD.jpg ,14,1,1.665246872,1,10,1,4
10,1,6,118,folder/04shapebCFSdim_m7HSD.jpg ,4,1,1.374959296,1,9,1,3
10,1,6,119,folder/03shapebCFSdim_m8HSD.jpg ,3,1,2.025401423,1,10,1,4
10,1,6,120,folder/02shapebCFSdim_m9HSD.jpg ,2,1,4.154853133,1,9,2,3
10,1,6,121,folder/01shapebCFSdim_m10HSD.jpg,1,1,1.785166206,1,10,1,4
10,1,6,122,folder/09shapebCFSdim_m2HSD.jpg ,9,1,1.734533799,1,10,2,4
10,1,6,123,folder/18shapebCFSdim_p7HSD.jpg ,18,1,3.824187397,1,10,2,4
10,1,6,124,folder/07shapebCFSdim_m4HSD.jpg ,7,1,0.784835284,1,10,1,4
10,1,6,125,folder/19shapebCFSdim_p8HSD.jpg ,19,1,1.224920092,1,10,1,4
10,1,6,126,folder/10shapebCFSdim_m1HSD.jpg ,10,1,6.394224654,1,9,2,3
10,1,7,127,folder/09shapebCFSdim_m2HSD.jpg ,9,1,1.354826199,1,10,1,4
10,1,7,128,folder/03shapebCFSdim_m8HSD.jpg ,3,1,1.873929361,1,10,2,4
10,1,7,129,folder/20shapebCFSdim_p9HSD.jpg ,20,1,1.094598154,1,9,1,3
10,1,7,130,folder/11shapebCFSdim_0HSD.jpg  ,11,1,1.08453425,1,9,2,3
10,1,7,131,folder/08shapebCFSdim_m3HSD.jpg ,8,1,1.714738778,1,10,1,4
10,1,7,132,folder/17shapebCFSdim_p6HSD.jpg ,17,1,2.124664529,1,10,2,4
10,1,7,133,folder/10shapebCFSdim_m1HSD.jpg ,10,1,1.894096048,1,9,2,3
10,1,7,134,folder/05shapebCFSdim_m6HSD.jpg ,5,1,1.763850621,1,10,1,4
10,1,7,135,folder/04shapebCFSdim_m7HSD.jpg ,4,1,1.583993546,1,9,1,3
10,1,7,136,folder/14shapebCFSdim_p3HSD.jpg ,14,1,3.104685697,1,9,2,3
10,1,7,137,folder/01shapebCFSdim_m10HSD.jpg,1,1,1.123799589,1,10,1,4
10,1,7,138,folder/12shapebCFSdim_p1HSD.jpg ,12,1,4.663893946,1,10,2,4
10,1,7,139,folder/07shapebCFSdim_m4HSD.jpg ,7,1,1.243640547,1,10,1,4
10,1,7,140,folder/13shapebCFSdim_p2HSD.jpg ,13,1,1.684939879,1,10,1,4
10,1,7,141,folder/19shapebCFSdim_p8HSD.jpg ,19,1,2.29373365,1,9,1,3
10,1,7,142,folder/02shapebCFSdim_m9HSD.jpg ,2,1,1.26480249,1,10,1,4
10,1,7,143,folder/06shapebCFSdim_m5HSD.jpg ,6,1,2.574974971,0,10,1,3
10,1,7,144,folder/18shapebCFSdim_p7HSD.jpg ,18,1,1.645015804,1,10,1,4
10,1,7,145,folder/16shapebCFSdim_p5HSD.jpg ,16,1,6.025089472,1,10,2,4
10,1,7,146,folder/15shapebCFSdim_p4HSD.jpg ,15,1,2.644597486,1,10,2,4
10,1,7,147,folder/21shapebCFSdim_p10HSD.jpg,21,1,1.454832637,1,10,1,4
10,1,8,148,folder/01shapebCFSdim_m10HSD.jpg,1,1,1.694836767,1,10,2,4
10,1,8,149,folder/16shapebCFSdim_p5HSD.jpg ,16,1,2.184750625,1,10,1,4
10,1,8,150,folder/09shapebCFSdim_m2HSD.jpg ,9,1,3.654717685,1,9,2,3
10,1,8,151,folder/14shapebCFSdim_p3HSD.jpg ,14,1,0.874530558,1,10,1,4
10,1,8,152,folder/05shapebCFSdim_m6HSD.jpg ,5,1,2.274565952,1,9,2,3
10,1,8,153,folder/04shapebCFSdim_m7HSD.jpg ,4,1,2.424109394,1,9,1,3
10,1,8,154,folder/19shapebCFSdim_p8HSD.jpg ,19,1,3.004961662,1,9,2,3
10,1,8,155,folder/21shapebCFSdim_p10HSD.jpg,21,1,3.434866245,1,9,2,3
10,1,8,156,folder/07shapebCFSdim_m4HSD.jpg ,7,1,2.634829048,1,10,1,4
10,1,8,157,folder/08shapebCFSdim_m3HSD.jpg ,8,1,2.034784821,1,10,2,4
10,1,8,158,folder/12shapebCFSdim_p1HSD.jpg ,12,1,3.034446434,1,9,2,3
10,1,8,159,folder/03shapebCFSdim_m8HSD.jpg ,3,1,2.854223291,1,9,1,3
10,1,8,160,folder/18shapebCFSdim_p7HSD.jpg ,18,1,2.544353741,1,10,1,4
10,1,8,161,folder/11shapebCFSdim_0HSD.jpg  ,11,1,1.734187636,1,9,1,3
10,1,8,162,folder/13shapebCFSdim_p2HSD.jpg ,13,1,1.174375391,1,10,1,4
10,1,8,163,folder/10shapebCFSdim_m1HSD.jpg ,10,1,1.194639427,1,10,2,4
10,1,8,164,folder/06shapebCFSdim_m5HSD.jpg ,6,1,1.543969635,1,10,1,4
10,1,8,165,folder/02shapebCFSdim_m9HSD.jpg ,2,1,2.914138328,1,9,2,3
10,1,8,166,folder/15shapebCFSdim_p4HSD.jpg ,15,1,2.743603381,1,10,1,4
10,1,8,167,folder/20shapebCFSdim_p9HSD.jpg ,20,1,4.354230289,1,9,2,3
10,1,8,168,folder/17shapebCFSdim_p6HSD.jpg ,17,1,1.244317321,1,9,2,3
10,1,9,169,folder/10shapebCFSdim_m1HSD.jpg ,10,1,1.554122491,1,10,2,4
10,1,9,170,folder/19shapebCFSdim_p8HSD.jpg ,19,1,1.733720488,1,10,1,4
10,1,9,171,folder/01shapebCFSdim_m10HSD.jpg,1,1,2.613786847,1,9,2,3
10,1,9,172,folder/13shapebCFSdim_p2HSD.jpg ,13,1,1.254002718,1,9,1,3
10,1,9,173,folder/08shapebCFSdim_m3HSD.jpg ,8,1,2.343994703,1,9,2,3
10,1,9,174,folder/21shapebCFSdim_p10HSD.jpg,21,1,1.143972807,1,9,1,3
10,1,9,175,folder/07shapebCFSdim_m4HSD.jpg ,7,1,1.824361567,1,10,1,4
10,1,9,176,folder/03shapebCFSdim_m8HSD.jpg ,3,1,1.054159657,1,9,1,3
10,1,9,177,folder/17shapebCFSdim_p6HSD.jpg ,17,1,2.103775037,1,9,1,3
10,1,9,178,folder/04shapebCFSdim_m7HSD.jpg ,4,1,3.663746212,1,9,2,3
10,1,9,179,folder/05shapebCFSdim_m6HSD.jpg ,5,1,1.973376279,1,10,2,4
10,1,9,180,folder/15shapebCFSdim_p4HSD.jpg ,15,1,2.013294755,1,9,2,3
10,1,9,181,folder/18shapebCFSdim_p7HSD.jpg ,18,1,1.913560457,1,10,1,4
10,1,9,182,folder/02shapebCFSdim_m9HSD.jpg ,2,1,2.163484802,1,10,1,4
10,1,9,183,folder/20shapebCFSdim_p9HSD.jpg ,20,1,1.503641238,1,9,2,3
10,1,9,184,folder/09shapebCFSdim_m2HSD.jpg ,9,1,1.733492512,1,10,2,4
10,1,9,185,folder/14shapebCFSdim_p3HSD.jpg ,14,1,1.493762388,1,10,1,4
10,1,9,186,folder/06shapebCFSdim_m5HSD.jpg ,6,1,1.184192659,1,9,1,3
10,1,9,187,folder/11shapebCFSdim_0HSD.jpg  ,11,1,1.743400597,1,10,2,4
10,1,9,188,folder/12shapebCFSdim_p1HSD.jpg ,12,1,1.753732288,1,10,1,4
10,1,9,189,folder/16shapebCFSdim_p5HSD.jpg ,16,1,0.903775535,1,9,1,3
10,1,10,190,folder/01shapebCFSdim_m10HSD.jpg,1,1,3.163415134,1,9,2,3
10,1,10,191,folder/11shapebCFSdim_0HSD.jpg  ,11,1,2.322833071,1,10,2,4
10,1,10,192,folder/06shapebCFSdim_m5HSD.jpg ,6,1,1.63250979,1,10,2,4
10,1,10,193,folder/17shapebCFSdim_p6HSD.jpg ,17,1,3.583287225,1,10,2,4
10,1,10,194,folder/16shapebCFSdim_p5HSD.jpg ,16,1,4.583110256,1,9,2,3
10,1,10,195,folder/05shapebCFSdim_m6HSD.jpg ,5,1,5.46284507,1,10,1,4
10,1,10,196,folder/19shapebCFSdim_p8HSD.jpg ,19,1,2.032423576,1,9,1,3
10,1,10,197,folder/20shapebCFSdim_p9HSD.jpg ,20,1,3.783050354,1,9,2,3
10,1,10,198,folder/18shapebCFSdim_p7HSD.jpg ,18,1,4.023066925,1,10,2,4
10,1,10,199,folder/12shapebCFSdim_p1HSD.jpg ,12,1,7.052392456,1,10,2,4
10,1,10,200,folder/08shapebCFSdim_m3HSD.jpg ,8,1,1.482902901,1,9,2,3
10,1,10,201,folder/21shapebCFSdim_p10HSD.jpg,21,1,1.783021429,1,9,2,3
10,1,10,202,folder/13shapebCFSdim_p2HSD.jpg ,13,1,1.3234747,1,9,2,3
10,1,10,203,folder/09shapebCFSdim_m2HSD.jpg ,9,1,3.164287227,1,9,2,3
10,1,10,204,folder/15shapebCFSdim_p4HSD.jpg ,15,1,3.522686706,1,10,1,4
10,1,10,205,folder/04shapebCFSdim_m7HSD.jpg ,4,1,2.362593239,1,10,1,4
10,1,10,206,folder/10shapebCFSdim_m1HSD.jpg ,10,1,1.55314123,1,10,2,4
10,1,10,207,folder/07shapebCFSdim_m4HSD.jpg ,7,1,1.932540301,1,9,1,3
10,1,10,208,folder/02shapebCFSdim_m9HSD.jpg ,2,1,2.982820948,1,9,2,3
10,1,10,209,folder/14shapebCFSdim_p3HSD.jpg ,14,1,1.653145491,1,10,1,4
10,1,10,210,folder/03shapebCFSdim_m8HSD.jpg ,3,1,2.892597254,1,9,1,3
10,1,11,211,folder/18shapebCFSdim_p7HSD.jpg ,18,1,1.232348434,1,9,1,3
10,1,11,212,folder/10shapebCFSdim_m1HSD.jpg ,10,1,1.302795768,1,10,1,4
10,1,11,213,folder/04shapebCFSdim_m7HSD.jpg ,4,1,2.242292286,1,10,2,4
10,1,11,214,folder/05shapebCFSdim_m6HSD.jpg ,5,1,1.49252796,1,10,2,4
10,1,11,215,folder/13shapebCFSdim_p2HSD.jpg ,13,1,1.612802165,1,10,2,4
10,1,11,216,folder/02shapebCFSdim_m9HSD.jpg ,2,1,1.872269772,0,9,2,4
10,1,11,217,folder/12shapebCFSdim_p1HSD.jpg ,12,1,1.152062684,1,9,1,3
10,1,11,218,folder/15shapebCFSdim_p4HSD.jpg ,15,1,1.752370653,1,10,1,4
10,1,11,219,folder/09shapebCFSdim_m2HSD.jpg ,9,1,1.10244637,1,9,1,3
10,1,11,220,folder/03shapebCFSdim_m8HSD.jpg ,3,1,1.402178615,1,10,1,4
10,1,11,221,folder/16shapebCFSdim_p5HSD.jpg ,16,1,1.362571468,1,10,1,4
10,1,11,222,folder/17shapebCFSdim_p6HSD.jpg ,17,1,1.582676698,1,9,1,3
10,1,11,223,folder/20shapebCFSdim_p9HSD.jpg ,20,1,3.632081208,1,10,2,4
10,1,11,224,folder/08shapebCFSdim_m3HSD.jpg ,8,1,1.892725083,1,10,1,4
10,1,11,225,folder/01shapebCFSdim_m10HSD.jpg,1,1,1.652549582,1,9,1,3
10,1,11,226,folder/07shapebCFSdim_m4HSD.jpg ,7,1,1.522036058,1,9,1,3
10,1,11,227,folder/06shapebCFSdim_m5HSD.jpg ,6,1,2.722358396,1,10,2,4
10,1,11,228,folder/19shapebCFSdim_p8HSD.jpg ,19,1,1.452109678,1,9,1,3
10,1,11,229,folder/11shapebCFSdim_0HSD.jpg  ,11,1,1.192206959,1,10,1,4
10,1,11,230,folder/14shapebCFSdim_p3HSD.jpg ,14,1,1.302158182,1,10,2,4
10,1,11,231,folder/21shapebCFSdim_p10HSD.jpg,21,1,1.492060811,1,10,2,4
10,1,12,232,folder/08shapebCFSdim_m3HSD.jpg ,8,1,2.062225585,1,9,1,3
10,1,12,233,folder/16shapebCFSdim_p5HSD.jpg ,16,1,2.301764744,1,9,2,3
10,1,12,234,folder/04shapebCFSdim_m7HSD.jpg ,4,1,3.80163054,1,10,1,4
10,1,12,235,folder/18shapebCFSdim_p7HSD.jpg ,18,1,1.146529993,1,9,1,3
10,1,12,236,folder/07shapebCFSdim_m4HSD.jpg ,7,1,1.371446042,1,9,1,3
10,1,12,237,folder/15shapebCFSdim_p4HSD.jpg ,15,1,1.591806928,1,9,2,3
10,1,12,238,folder/11shapebCFSdim_0HSD.jpg  ,11,1,1.601678624,1,9,2,3
10,1,12,239,folder/02shapebCFSdim_m9HSD.jpg ,2,1,2.791704105,1,9,2,3
10,1,12,240,folder/03shapebCFSdim_m8HSD.jpg ,3,1,1.831200842,1,9,2,3
10,1,12,241,folder/01shapebCFSdim_m10HSD.jpg,1,1,1.121599451,1,10,1,4
10,1,12,242,folder/12shapebCFSdim_p1HSD.jpg ,12,1,0.991621188,1,10,1,4
10,1,12,243,folder/14shapebCFSdim_p3HSD.jpg ,14,1,4.198744236,1,9,2,3
10,1,12,244,folder/20shapebCFSdim_p9HSD.jpg ,20,1,1.701010465,1,9,2,3
10,1,12,245,folder/06shapebCFSdim_m5HSD.jpg ,6,1,2.071413976,1,9,1,3
10,1,12,246,folder/17shapebCFSdim_p6HSD.jpg ,17,1,1.881611183,1,9,2,3
10,1,12,247,folder/21shapebCFSdim_p10HSD.jpg,21,1,1.941580025,1,10,2,4
10,1,12,248,folder/10shapebCFSdim_m1HSD.jpg ,10,1,1.941579714,1,9,1,3
10,1,12,249,folder/09shapebCFSdim_m2HSD.jpg ,9,1,2.28066967,1,10,2,4
10,1,12,250,folder/19shapebCFSdim_p8HSD.jpg ,19,1,2.701383997,1,10,2,4
10,1,12,251,folder/05shapebCFSdim_m6HSD.jpg ,5,1,3.18122182,1,9,2,3
10,1,12,252,folder/13shapebCFSdim_p2HSD.jpg ,13,1,1.511178125,1,9,1,3
10,1,13,253,folder/05shapebCFSdim_m6HSD.jpg ,5,1,1.811490729,1,10,1,4
10,1,13,254,folder/02shapebCFSdim_m9HSD.jpg ,2,1,1.910951953,1,9,1,3
10,1,13,255,folder/14shapebCFSdim_p3HSD.jpg ,14,1,1.541349312,1,9,2,3
10,1,13,256,folder/12shapebCFSdim_p1HSD.jpg ,12,1,2.121256399,1,9,1,3
10,1,13,257,folder/07shapebCFSdim_m4HSD.jpg ,7,1,3.031562991,1,9,2,3
10,1,13,258,folder/13shapebCFSdim_p2HSD.jpg ,13,1,2.13055209,1,9,1,3
10,1,13,259,folder/15shapebCFSdim_p4HSD.jpg ,15,1,2.531356008,1,10,1,4
10,1,13,260,folder/18shapebCFSdim_p7HSD.jpg ,18,1,2.030538188,1,10,1,4
10,1,13,261,folder/21shapebCFSdim_p10HSD.jpg,21,1,3.550714361,1,9,2,3
10,1,13,262,folder/08shapebCFSdim_m3HSD.jpg ,8,1,1.41097699,1,9,1,3
10,1,13,263,folder/11shapebCFSdim_0HSD.jpg  ,11,1,0.850394355,1,9,2,3
10,1,13,264,folder/06shapebCFSdim_m5HSD.jpg ,6,1,1.010634311,1,9,1,3
10,1,13,265,folder/04shapebCFSdim_m7HSD.jpg ,4,1,1.810769479,1,9,1,3
10,1,13,266,folder/20shapebCFSdim_p9HSD.jpg ,20,1,1.480773364,1,9,2,3
10,1,13,267,folder/03shapebCFSdim_m8HSD.jpg ,3,1,1.690672865,1,10,2,4
10,1,13,268,folder/09shapebCFSdim_m2HSD.jpg ,9,1,1.649938901,1,10,1,4
10,1,13,269,folder/19shapebCFSdim_p8HSD.jpg ,19,1,1.500879091,1,9,2,3
10,1,13,270,folder/01shapebCFSdim_m10HSD.jpg,1,1,2.510694493,1,10,1,4
10,1,13,271,folder/17shapebCFSdim_p6HSD.jpg ,17,1,1.761099982,1,9,1,3
10,1,13,272,folder/10shapebCFSdim_m1HSD.jpg ,10,1,1.851254007,1,10,2,4
10,1,13,273,folder/16shapebCFSdim_p5HSD.jpg ,16,1,1.587834612,1,10,1,4
10,1,14,274,folder/13shapebCFSdim_p2HSD.jpg ,13,1,1.190797116,1,10,1,4
10,1,14,275,folder/14shapebCFSdim_p3HSD.jpg ,14,1,1.490678961,1,9,2,3
10,1,14,276,folder/10shapebCFSdim_m1HSD.jpg ,10,1,1.760401748,1,10,1,4
10,1,14,277,folder/21shapebCFSdim_p10HSD.jpg,21,1,2.710731006,1,10,2,4
10,1,14,278,folder/07shapebCFSdim_m4HSD.jpg ,7,1,1.21024162,1,9,1,3
10,1,14,279,folder/15shapebCFSdim_p4HSD.jpg ,15,1,1.310818464,1,9,1,3
10,1,14,280,folder/16shapebCFSdim_p5HSD.jpg ,16,1,3.37073319,1,9,2,3
10,1,14,281,folder/03shapebCFSdim_m8HSD.jpg ,3,1,1.120463926,1,9,1,3
10,1,14,282,folder/02shapebCFSdim_m9HSD.jpg ,2,1,1.730580144,1,9,1,3
10,1,14,283,folder/06shapebCFSdim_m5HSD.jpg ,6,1,1.14023251,1,9,1,3
10,1,14,284,folder/04shapebCFSdim_m7HSD.jpg ,4,1,1.070728493,1,9,1,3
10,1,14,285,folder/12shapebCFSdim_p1HSD.jpg ,12,1,1.840308679,1,9,1,3
10,1,14,286,folder/05shapebCFSdim_m6HSD.jpg ,5,1,2.310189587,1,9,1,3
10,1,14,287,folder/20shapebCFSdim_p9HSD.jpg ,20,1,2.38982189,1,10,2,4
10,1,14,288,folder/19shapebCFSdim_p8HSD.jpg ,19,1,1.990116485,1,10,2,4
10,1,14,289,folder/09shapebCFSdim_m2HSD.jpg ,9,1,1.840404472,1,10,1,4
10,1,14,290,folder/11shapebCFSdim_0HSD.jpg  ,11,1,1.819720874,1,9,1,3
10,1,14,291,folder/17shapebCFSdim_p6HSD.jpg ,17,1,1.34998801,1,10,2,4
10,1,14,292,folder/08shapebCFSdim_m3HSD.jpg ,8,1,2.050334764,1,10,2,4
10,1,14,293,folder/18shapebCFSdim_p7HSD.jpg ,18,1,1.769891203,1,10,2,4
10,1,14,294,folder/01shapebCFSdim_m10HSD.jpg,1,1,1.999704533,1,10,1,4
10,1,15,295,folder/05shapebCFSdim_m6HSD.jpg ,5,1,1.629687617,1,10,1,4
10,1,15,296,folder/09shapebCFSdim_m2HSD.jpg ,9,1,1.659924118,1,9,1,3
10,1,15,297,folder/08shapebCFSdim_m3HSD.jpg ,8,1,2.879815057,1,10,2,4
10,1,15,298,folder/03shapebCFSdim_m8HSD.jpg ,3,1,1.339354943,1,10,1,4
10,1,15,299,folder/14shapebCFSdim_p3HSD.jpg ,14,1,0.879370301,1,10,2,4
10,1,15,300,folder/01shapebCFSdim_m10HSD.jpg,1,1,0.799767546,1,9,1,3
10,1,15,301,folder/19shapebCFSdim_p8HSD.jpg ,19,1,0.969761322,1,9,2,3
10,1,15,302,folder/02shapebCFSdim_m9HSD.jpg ,2,1,1.189005655,1,9,1,3
10,1,15,303,folder/16shapebCFSdim_p5HSD.jpg ,16,1,0.919898994,1,9,2,3
10,1,15,304,folder/17shapebCFSdim_p6HSD.jpg ,17,1,1.759810814,1,9,1,3
10,1,15,305,folder/07shapebCFSdim_m4HSD.jpg ,7,1,1.198886993,1,10,1,4
10,1,15,306,folder/11shapebCFSdim_0HSD.jpg  ,11,1,1.579691863,1,9,2,3
10,1,15,307,folder/06shapebCFSdim_m5HSD.jpg ,6,1,1.26885567,1,9,2,3
10,1,15,308,folder/12shapebCFSdim_p1HSD.jpg ,12,1,2.728892563,1,10,1,4
10,1,15,309,folder/21shapebCFSdim_p10HSD.jpg,21,1,2.529271569,1,9,1,3
10,1,15,310,folder/15shapebCFSdim_p4HSD.jpg ,15,1,1.53960326,1,10,2,4
10,1,15,311,folder/10shapebCFSdim_m1HSD.jpg ,10,1,1.769493723,1,9,2,3
10,1,15,312,folder/04shapebCFSdim_m7HSD.jpg ,4,1,2.479389025,1,10,1,4
10,1,15,313,folder/18shapebCFSdim_p7HSD.jpg ,18,1,4.3287169,1,10,2,4
10,1,15,314,folder/13shapebCFSdim_p2HSD.jpg ,13,1,1.709148238,1,10,1,4
10,1,15,315,folder/20shapebCFSdim_p9HSD.jpg ,20,1,3.98956474,1,10,2,4
10,1,16,316,folder/14shapebCFSdim_p3HSD.jpg ,14,1,1.209225215,1,9,2,3
10,1,16,317,folder/07shapebCFSdim_m4HSD.jpg ,7,1,1.149515761,1,9,1,3
10,1,16,318,folder/02shapebCFSdim_m9HSD.jpg ,2,1,2.229121005,1,9,2,3
10,1,16,319,folder/16shapebCFSdim_p5HSD.jpg ,16,1,1.659470654,1,10,1,4
10,1,16,320,folder/17shapebCFSdim_p6HSD.jpg ,17,1,2.328823268,1,10,2,4
10,1,16,321,folder/03shapebCFSdim_m8HSD.jpg ,3,1,2.159235681,1,10,1,4
10,1,16,322,folder/09shapebCFSdim_m2HSD.jpg ,9,1,2.299059203,1,10,1,4
10,1,16,323,folder/13shapebCFSdim_p2HSD.jpg ,13,1,1.519034427,1,9,2,3
10,1,16,324,folder/12shapebCFSdim_p1HSD.jpg ,12,1,1.508732283,1,10,1,4
10,1,16,325,folder/18shapebCFSdim_p7HSD.jpg ,18,1,1.108686004,1,10,2,4
10,1,16,326,folder/08shapebCFSdim_m3HSD.jpg ,8,1,2.698775182,1,9,2,3
10,1,16,327,folder/06shapebCFSdim_m5HSD.jpg ,6,1,1.558834717,1,9,2,3
10,1,16,328,folder/04shapebCFSdim_m7HSD.jpg ,4,1,1.388612031,1,9,1,3
10,1,16,329,folder/05shapebCFSdim_m6HSD.jpg ,5,1,1.388372859,1,10,2,4
10,1,16,330,folder/11shapebCFSdim_0HSD.jpg  ,11,1,1.158326576,1,9,1,3
10,1,16,331,folder/21shapebCFSdim_p10HSD.jpg,21,1,1.118514468,1,10,1,4
10,1,16,332,folder/15shapebCFSdim_p4HSD.jpg ,15,1,1.488772734,1,10,1,4
10,1,16,333,folder/20shapebCFSdim_p9HSD.jpg ,20,1,1.128176539,1,10,1,4
10,1,16,334,folder/01shapebCFSdim_m10HSD.jpg,1,1,4.568521979,1,9,1,3
10,1,16,335,folder/10shapebCFSdim_m1HSD.jpg ,10,1,1.837785705,1,9,2,3
10,1,16,336,folder/19shapebCFSdim_p8HSD.jpg ,19,1,1.458557072,1,10,1,4
10,1,17,337,folder/17shapebCFSdim_p6HSD.jpg ,17,1,1.818954838,1,10,2,4
10,1,17,338,folder/08shapebCFSdim_m3HSD.jpg ,8,1,1.668772877,1,10,2,4
10,1,17,339,folder/19shapebCFSdim_p8HSD.jpg ,19,1,1.328323463,1,10,1,4
10,1,17,340,folder/21shapebCFSdim_p10HSD.jpg,21,1,2.228745607,1,10,2,4
10,1,17,341,folder/03shapebCFSdim_m8HSD.jpg ,3,1,1.418827072,1,10,1,4
10,1,17,342,folder/15shapebCFSdim_p4HSD.jpg ,15,1,1.59862692,1,9,2,3
10,1,17,343,folder/13shapebCFSdim_p2HSD.jpg ,13,1,1.028427001,1,9,1,3
10,1,17,344,folder/02shapebCFSdim_m9HSD.jpg ,2,1,1.838649711,1,10,2,4
10,1,17,345,folder/06shapebCFSdim_m5HSD.jpg ,6,1,1.038405687,1,9,2,3
10,1,17,346,folder/01shapebCFSdim_m10HSD.jpg,1,1,2.327526325,1,10,2,4
10,1,17,347,folder/20shapebCFSdim_p9HSD.jpg ,20,1,1.698450169,1,9,1,3
10,1,17,348,folder/10shapebCFSdim_m1HSD.jpg ,10,1,1.358395125,1,9,1,3
10,1,17,349,folder/07shapebCFSdim_m4HSD.jpg ,7,1,3.278429722,1,10,2,4
10,1,17,350,folder/18shapebCFSdim_p7HSD.jpg ,18,1,2.268354621,1,10,2,4
10,1,17,351,folder/16shapebCFSdim_p5HSD.jpg ,16,1,2.137735973,1,10,1,4
10,1,17,352,folder/12shapebCFSdim_p1HSD.jpg ,12,1,1.458349001,1,9,1,3
10,1,17,353,folder/11shapebCFSdim_0HSD.jpg  ,11,1,2.217819251,1,9,2,3
10,1,17,354,folder/05shapebCFSdim_m6HSD.jpg ,5,1,1.718052981,1,9,2,3
10,1,17,355,folder/09shapebCFSdim_m2HSD.jpg ,9,1,1.917575693,1,10,2,4
10,1,17,356,folder/04shapebCFSdim_m7HSD.jpg ,4,1,1.27805308,1,9,1,3
10,1,17,357,folder/14shapebCFSdim_p3HSD.jpg ,14,1,1.638006092,1,10,2,4
10,1,18,358,folder/15shapebCFSdim_p4HSD.jpg ,15,1,1.327530991,1,10,2,4
10,1,18,359,folder/19shapebCFSdim_p8HSD.jpg ,19,1,1.037878512,1,9,1,3
10,1,18,360,folder/10shapebCFSdim_m1HSD.jpg ,10,1,1.347911968,1,9,2,3
10,1,18,361,folder/05shapebCFSdim_m6HSD.jpg ,5,1,2.03763934,0,10,2,3
10,1,18,362,folder/09shapebCFSdim_m2HSD.jpg ,9,1,1.1683656,1,9,2,3
10,1,18,363,folder/13shapebCFSdim_p2HSD.jpg ,13,1,6.217469045,0,9,1,4
10,1,18,364,folder/12shapebCFSdim_p1HSD.jpg ,12,1,2.12790191,1,10,1,4
10,1,18,365,folder/11shapebCFSdim_0HSD.jpg  ,11,1,0.80790874,1,10,1,4
10,1,18,366,folder/16shapebCFSdim_p5HSD.jpg ,16,1,8.52768258,1,9,1,3
10,1,18,367,folder/02shapebCFSdim_m9HSD.jpg ,2,1,2.757619696,1,9,1,3
10,1,18,368,folder/06shapebCFSdim_m5HSD.jpg ,6,1,1.687945552,1,10,2,4
10,1,18,369,folder/17shapebCFSdim_p6HSD.jpg ,17,1,2.667608117,1,10,2,4
10,1,18,370,folder/21shapebCFSdim_p10HSD.jpg,21,1,1.087271204,1,9,1,3
10,1,18,371,folder/03shapebCFSdim_m8HSD.jpg ,3,1,1.307486845,1,10,2,4
10,1,18,372,folder/08shapebCFSdim_m3HSD.jpg ,8,1,1.207382747,1,10,1,4
10,1,18,373,folder/01shapebCFSdim_m10HSD.jpg,1,1,1.207538567,1,9,2,3
10,1,18,374,folder/07shapebCFSdim_m4HSD.jpg ,7,1,1.326997285,1,9,1,3
10,1,18,375,folder/18shapebCFSdim_p7HSD.jpg ,18,1,1.516705217,1,9,2,3
10,1,18,376,folder/04shapebCFSdim_m7HSD.jpg ,4,1,1.067497643,1,9,2,3
10,1,18,377,folder/20shapebCFSdim_p9HSD.jpg ,20,1,1.166989658,1,10,2,4
10,1,18,378,folder/14shapebCFSdim_p3HSD.jpg ,14,1,1.236863475,1,9,2,3
10,1,19,379,folder/12shapebCFSdim_p1HSD.jpg ,12,1,1.386909522,1,9,1,3
10,1,19,380,folder/08shapebCFSdim_m3HSD.jpg ,8,1,1.397329852,1,10,2,4
10,1,19,381,folder/09shapebCFSdim_m2HSD.jpg ,9,1,1.417608505,1,9,2,3
10,1,19,382,folder/18shapebCFSdim_p7HSD.jpg ,18,1,1.195572479,1,10,2,4
10,1,19,383,folder/06shapebCFSdim_m5HSD.jpg ,6,1,1.3071186,1,9,1,3
10,1,19,384,folder/13shapebCFSdim_p2HSD.jpg ,13,1,1.236977619,1,10,2,4
10,1,19,385,folder/20shapebCFSdim_p9HSD.jpg ,20,1,1.367133473,1,10,2,4
10,1,19,386,folder/03shapebCFSdim_m8HSD.jpg ,3,1,1.077160957,1,9,1,3
10,1,19,387,folder/11shapebCFSdim_0HSD.jpg  ,11,1,1.907169669,1,10,1,4
10,1,19,388,folder/02shapebCFSdim_m9HSD.jpg ,2,1,1.897412739,1,9,1,3
10,1,19,389,folder/07shapebCFSdim_m4HSD.jpg ,7,1,2.056743591,1,9,2,3
10,1,19,390,folder/15shapebCFSdim_p4HSD.jpg ,15,1,1.596892997,1,9,1,3
10,1,19,391,folder/19shapebCFSdim_p8HSD.jpg ,19,1,1.367267521,1,9,2,3
10,1,19,392,folder/04shapebCFSdim_m7HSD.jpg ,4,1,2.947034339,1,9,2,3
10,1,19,393,folder/05shapebCFSdim_m6HSD.jpg ,5,1,2.626652397,1,10,1,4
10,1,19,394,folder/16shapebCFSdim_p5HSD.jpg ,16,1,1.856319549,1,9,2,3
10,1,19,395,folder/01shapebCFSdim_m10HSD.jpg,1,1,1.296715997,1,9,2,3
10,1,19,396,folder/10shapebCFSdim_m1HSD.jpg ,10,1,1.926223224,1,9,1,3
10,1,19,397,folder/21shapebCFSdim_p10HSD.jpg,21,1,2.105961801,1,10,2,4
10,1,19,398,folder/14shapebCFSdim_p3HSD.jpg ,14,1,1.436116536,1,10,2,4
10,1,19,399,folder/17shapebCFSdim_p6HSD.jpg ,17,1,2.216085017,1,10,2,4
10,1,20,400,folder/02shapebCFSdim_m9HSD.jpg ,2,1,2.376656829,1,10,1,4
10,1,20,401,folder/14shapebCFSdim_p3HSD.jpg ,14,1,1.186902555,1,9,2,3
10,1,20,402,folder/07shapebCFSdim_m4HSD.jpg ,7,1,1.386821193,1,9,1,3
10,1,20,403,folder/19shapebCFSdim_p8HSD.jpg ,19,1,1.516849218,1,10,2,4
10,1,20,404,folder/16shapebCFSdim_p5HSD.jpg ,16,1,1.646542589,1,10,1,4
10,1,20,405,folder/08shapebCFSdim_m3HSD.jpg ,8,1,2.3263908,1,10,1,4
10,1,20,406,folder/20shapebCFSdim_p9HSD.jpg ,20,1,1.445703651,1,9,2,3
10,1,20,407,folder/01shapebCFSdim_m10HSD.jpg,1,1,1.545617095,1,10,2,4
10,1,20,408,folder/15shapebCFSdim_p4HSD.jpg ,15,1,2.026132314,1,10,2,4
10,1,20,409,folder/13shapebCFSdim_p2HSD.jpg ,13,1,9.865841973,1,9,2,3
10,1,20,410,folder/06shapebCFSdim_m5HSD.jpg ,6,1,2.636591273,1,9,2,3
10,1,20,411,folder/09shapebCFSdim_m2HSD.jpg ,9,1,1.87617553,1,10,1,4
10,1,20,412,folder/12shapebCFSdim_p1HSD.jpg ,12,1,2.765496214,1,10,2,4
10,1,20,413,folder/10shapebCFSdim_m1HSD.jpg ,10,1,1.865950207,1,10,1,4
10,1,20,414,folder/03shapebCFSdim_m8HSD.jpg ,3,1,1.256102708,1,9,1,3
10,1,20,415,folder/04shapebCFSdim_m7HSD.jpg ,4,1,1.405791084,1,10,2,4
10,1,20,416,folder/05shapebCFSdim_m6HSD.jpg ,5,1,1.335656945,1,10,2,4
10,1,20,417,folder/11shapebCFSdim_0HSD.jpg  ,11,1,1.485428985,1,10,1,4
10,1,20,418,folder/18shapebCFSdim_p7HSD.jpg ,18,1,1.826206211,1,10,1,4
10,1,20,419,folder/21shapebCFSdim_p10HSD.jpg,21,1,1.595928843,1,9,2,3
10,1,20,420,folder/17shapebCFSdim_p6HSD.jpg ,17,1,1.545367658,1,9,1,3
10,1,21,421,folder/14shapebCFSdim_p3HSD.jpg ,14,1,1.336187852,1,9,2,3
10,1,21,422,folder/11shapebCFSdim_0HSD.jpg  ,11,1,1.435930236,1,9,1,3
10,1,21,423,folder/09shapebCFSdim_m2HSD.jpg ,9,1,1.805677811,1,10,1,4
10,1,21,424,folder/21shapebCFSdim_p10HSD.jpg,21,1,1.285952303,1,10,1,4
10,1,21,425,folder/07shapebCFSdim_m4HSD.jpg ,7,1,2.005608579,0,9,1,4
10,1,21,426,folder/12shapebCFSdim_p1HSD.jpg ,12,1,1.035122586,1,9,2,3
10,1,21,427,folder/06shapebCFSdim_m5HSD.jpg ,6,1,1.035152444,1,10,1,4
10,1,21,428,folder/02shapebCFSdim_m9HSD.jpg ,2,1,1.025798903,1,10,2,4
10,1,21,429,folder/13shapebCFSdim_p2HSD.jpg ,13,1,1.755193448,1,9,2,3
10,1,21,430,folder/10shapebCFSdim_m1HSD.jpg ,10,1,1.575705862,1,10,1,4
10,1,21,431,folder/15shapebCFSdim_p4HSD.jpg ,15,1,1.695441074,1,9,2,3
10,1,21,432,folder/20shapebCFSdim_p9HSD.jpg ,20,1,2.575195171,1,10,2,4
10,1,21,433,folder/08shapebCFSdim_m3HSD.jpg ,8,1,2.645632552,1,10,2,4
10,1,21,434,folder/05shapebCFSdim_m6HSD.jpg ,5,1,1.944818961,1,10,1,4
10,1,21,435,folder/18shapebCFSdim_p7HSD.jpg ,18,1,1.385350702,1,9,1,3
10,1,21,436,folder/01shapebCFSdim_m10HSD.jpg,1,1,2.015421181,1,9,2,3
10,1,21,437,folder/17shapebCFSdim_p6HSD.jpg ,17,1,3.695219941,1,9,1,3
10,1,21,438,folder/16shapebCFSdim_p5HSD.jpg ,16,1,4.024450331,1,9,1,3
10,1,21,439,folder/19shapebCFSdim_p8HSD.jpg ,19,1,1.185433308,1,10,1,4
10,1,21,440,folder/04shapebCFSdim_m7HSD.jpg ,4,1,4.055147138,1,10,2,4
10,1,21,441,folder/03shapebCFSdim_m8HSD.jpg ,3,1,2.175248106,1,10,1,4
10,1,22,442,folder/19shapebCFSdim_p8HSD.jpg ,19,1,5.284954248,1,10,1,4
10,1,22,443,folder/11shapebCFSdim_0HSD.jpg  ,11,1,2.135301639,1,10,1,4
10,1,22,444,folder/20shapebCFSdim_p9HSD.jpg ,20,1,1.485145648,1,10,1,4
10,1,22,445,folder/17shapebCFSdim_p6HSD.jpg ,17,1,1.555334526,1,10,2,4
10,1,22,446,folder/04shapebCFSdim_m7HSD.jpg ,4,1,1.81479218,1,10,2,4
10,1,22,447,folder/13shapebCFSdim_p2HSD.jpg ,13,1,1.334720471,1,10,1,4
10,1,22,448,folder/15shapebCFSdim_p4HSD.jpg ,15,1,1.195431277,1,9,2,3
10,1,22,449,folder/01shapebCFSdim_m10HSD.jpg,1,1,2.935585473,1,10,2,4
10,1,22,450,folder/18shapebCFSdim_p7HSD.jpg ,18,1,1.674926048,1,9,2,3
10,1,22,451,folder/03shapebCFSdim_m8HSD.jpg ,3,1,1.084254023,1,9,1,3
10,1,22,452,folder/12shapebCFSdim_p1HSD.jpg ,12,1,1.054523548,1,9,2,3
10,1,22,453,folder/21shapebCFSdim_p10HSD.jpg,21,1,1.628943974,1,10,2,4
10,1,22,454,folder/06shapebCFSdim_m5HSD.jpg ,6,1,2.085076042,0,10,1,3
10,1,22,455,folder/07shapebCFSdim_m4HSD.jpg ,7,1,0.964692359,1,9,2,3
10,1,22,456,folder/08shapebCFSdim_m3HSD.jpg ,8,1,1.3350685,1,9,2,3
10,1,22,457,folder/05shapebCFSdim_m6HSD.jpg ,5,1,0.774504526,1,10,2,4
10,1,22,458,folder/02shapebCFSdim_m9HSD.jpg ,2,1,2.014238382,1,10,1,4
10,1,22,459,folder/16shapebCFSdim_p5HSD.jpg ,16,1,1.404450909,1,9,2,3
10,1,22,460,folder/09shapebCFSdim_m2HSD.jpg ,9,1,1.054624939,1,10,1,4
10,1,22,461,folder/10shapebCFSdim_m1HSD.jpg ,10,1,1.864590127,1,9,2,3
10,1,22,462,folder/14shapebCFSdim_p3HSD.jpg ,14,1,1.443822617,1,9,1,3
10,1,23,463,folder/11shapebCFSdim_0HSD.jpg  ,11,1,1.264571093,1,9,1,3
10,1,23,464,folder/13shapebCFSdim_p2HSD.jpg ,13,1,1.334570561,1,10,2,4
10,1,23,465,folder/10shapebCFSdim_m1HSD.jpg ,10,1,1.39445574,1,9,2,3
10,1,23,466,folder/17shapebCFSdim_p6HSD.jpg ,17,1,1.364752945,1,10,2,4
10,1,23,467,folder/05shapebCFSdim_m6HSD.jpg ,5,1,3.33451209,1,10,2,4
10,1,23,468,folder/02shapebCFSdim_m9HSD.jpg ,2,1,1.064476419,1,9,1,3
10,1,23,469,folder/09shapebCFSdim_m2HSD.jpg ,9,1,1.194149263,1,10,2,4
10,1,23,470,folder/01shapebCFSdim_m10HSD.jpg,1,1,1.124176231,1,10,1,4
10,1,23,471,folder/18shapebCFSdim_p7HSD.jpg ,18,1,0.984538386,1,10,1,4
10,1,23,472,folder/16shapebCFSdim_p5HSD.jpg ,16,1,0.964323803,1,9,1,3
10,1,23,473,folder/03shapebCFSdim_m8HSD.jpg ,3,1,1.36491343,0,10,1,3
10,1,23,474,folder/12shapebCFSdim_p1HSD.jpg ,12,1,1.083519711,1,9,2,3
10,1,23,475,folder/19shapebCFSdim_p8HSD.jpg ,19,1,1.024087685,1,9,1,3
10,1,23,476,folder/07shapebCFSdim_m4HSD.jpg ,7,1,1.064434743,1,9,1,3
10,1,23,477,folder/21shapebCFSdim_p10HSD.jpg,21,1,1.604292104,1,10,2,4
10,1,23,478,folder/06shapebCFSdim_m5HSD.jpg ,6,1,1.374205389,1,9,1,3
10,1,23,479,folder/20shapebCFSdim_p9HSD.jpg ,20,1,1.003599717,1,10,2,4
10,1,23,480,folder/15shapebCFSdim_p4HSD.jpg ,15,1,1.244315144,1,10,1,4
10,1,23,481,folder/14shapebCFSdim_p3HSD.jpg ,14,1,1.204224053,1,9,2,3
10,1,23,482,folder/04shapebCFSdim_m7HSD.jpg ,4,1,1.3940707,1,9,2,3
10,1,23,483,folder/08shapebCFSdim_m3HSD.jpg ,8,1,0.973927713,1,10,2,4
10,1,24,484,folder/18shapebCFSdim_p7HSD.jpg ,18,1,0.713716463,1,10,2,4
10,1,24,485,folder/03shapebCFSdim_m8HSD.jpg ,3,1,1.164040901,1,10,2,4
10,1,24,486,folder/07shapebCFSdim_m4HSD.jpg ,7,1,1.654216013,1,9,1,3
10,1,24,487,folder/04shapebCFSdim_m7HSD.jpg ,4,1,1.463419519,1,9,2,3
10,1,24,488,folder/11shapebCFSdim_0HSD.jpg  ,11,1,1.553953919,1,10,1,4
10,1,24,489,folder/08shapebCFSdim_m3HSD.jpg ,8,1,0.753688123,1,10,1,4
10,1,24,490,folder/15shapebCFSdim_p4HSD.jpg ,15,1,1.333896897,1,9,2,3
10,1,24,491,folder/19shapebCFSdim_p8HSD.jpg ,19,1,1.552989143,1,9,1,3
10,1,24,492,folder/21shapebCFSdim_p10HSD.jpg,21,1,1.033543861,1,9,1,3
10,1,24,493,folder/14shapebCFSdim_p3HSD.jpg ,14,1,1.073838979,1,9,1,3
10,1,24,494,folder/10shapebCFSdim_m1HSD.jpg ,10,1,1.293658073,1,10,1,4
10,1,24,495,folder/05shapebCFSdim_m6HSD.jpg ,5,1,0.804093799,1,9,1,3
10,1,24,496,folder/20shapebCFSdim_p9HSD.jpg ,20,1,1.003623976,1,10,1,4
10,1,24,497,folder/12shapebCFSdim_p1HSD.jpg ,12,1,0.89296581,1,10,1,4
10,1,24,498,folder/01shapebCFSdim_m10HSD.jpg,1,1,1.492665118,1,10,2,4
10,1,24,499,folder/16shapebCFSdim_p5HSD.jpg ,16,1,1.433062655,1,10,1,4
10,1,24,500,folder/09shapebCFSdim_m2HSD.jpg ,9,1,0.813557751,1,9,1,3
10,1,24,501,folder/02shapebCFSdim_m9HSD.jpg ,2,1,1.753487517,1,10,1,4
10,1,24,502,folder/13shapebCFSdim_p2HSD.jpg ,13,1,1.25353277,1,9,2,3
10,1,24,503,folder/17shapebCFSdim_p6HSD.jpg ,17,1,1.313517474,1,10,1,4
10,1,24,504,folder/06shapebCFSdim_m5HSD.jpg ,6,1,1.113294972,1,9,1,3
10,1,25,505,folder/03shapebCFSdim_m8HSD.jpg ,3,1,1.223329548,1,9,1,3
10,1,25,506,folder/15shapebCFSdim_p4HSD.jpg ,15,1,1.906157618,1,9,1,3
10,1,25,507,folder/09shapebCFSdim_m2HSD.jpg ,9,1,1.022624347,1,10,1,4
10,1,25,508,folder/19shapebCFSdim_p8HSD.jpg ,19,1,2.712750754,1,9,2,3
10,1,25,509,folder/06shapebCFSdim_m5HSD.jpg ,6,1,0.75299642,1,9,2,3
10,1,25,510,folder/05shapebCFSdim_m6HSD.jpg ,5,1,1.053221317,1,10,2,4
10,1,25,511,folder/13shapebCFSdim_p2HSD.jpg ,13,1,0.973416711,1,10,1,4
10,1,25,512,folder/14shapebCFSdim_p3HSD.jpg ,14,1,0.942714617,1,10,1,4
10,1,25,513,folder/08shapebCFSdim_m3HSD.jpg ,8,1,0.863044992,1,10,2,4
10,1,25,514,folder/04shapebCFSdim_m7HSD.jpg ,4,1,0.732738295,1,10,2,4
10,1,25,515,folder/21shapebCFSdim_p10HSD.jpg,21,1,0.953125928,1,10,2,4
10,1,25,516,folder/01shapebCFSdim_m10HSD.jpg,1,1,0.883134546,1,10,1,4
10,1,25,517,folder/12shapebCFSdim_p1HSD.jpg ,12,1,1.21244238,1,10,2,4
10,1,25,518,folder/11shapebCFSdim_0HSD.jpg  ,11,1,2.972824845,1,9,1,3
10,1,25,519,folder/17shapebCFSdim_p6HSD.jpg ,17,1,2.273041655,1,9,1,3
10,1,25,520,folder/18shapebCFSdim_p7HSD.jpg ,18,1,2.152794197,1,9,1,3
10,1,25,521,folder/16shapebCFSdim_p5HSD.jpg ,16,1,1.402745289,1,9,1,3
10,1,25,522,folder/20shapebCFSdim_p9HSD.jpg ,20,1,0.811406754,1,10,1,4
10,1,25,523,folder/02shapebCFSdim_m9HSD.jpg ,2,1,0.582354172,1,10,1,4
10,1,25,524,folder/07shapebCFSdim_m4HSD.jpg ,7,1,0.943088771,1,10,2,4
10,1,25,525,folder/10shapebCFSdim_m1HSD.jpg ,10,1,1.412124956,0,9,1,4
10,1,26,526,folder/10shapebCFSdim_m1HSD.jpg ,10,1,0.842633224,1,10,2,4
10,1,26,527,folder/13shapebCFSdim_p2HSD.jpg ,13,1,1.355469072,1,10,1,4
10,1,26,528,folder/01shapebCFSdim_m10HSD.jpg,1,1,1.192335098,1,9,1,3
10,1,26,529,folder/21shapebCFSdim_p10HSD.jpg,21,1,1.112068319,1,10,2,4
10,1,26,530,folder/09shapebCFSdim_m2HSD.jpg ,9,1,1.212670667,1,10,2,4
10,1,26,531,folder/15shapebCFSdim_p4HSD.jpg ,15,1,0.902426341,1,9,2,3
10,1,26,532,folder/08shapebCFSdim_m3HSD.jpg ,8,1,1.282947874,1,10,2,4
10,1,26,533,folder/20shapebCFSdim_p9HSD.jpg ,20,1,1.402483413,1,10,1,4
10,1,26,534,folder/07shapebCFSdim_m4HSD.jpg ,7,1,1.81248754,1,9,1,3
10,1,26,535,folder/03shapebCFSdim_m8HSD.jpg ,3,1,1.701988615,1,9,1,3
10,1,26,536,folder/12shapebCFSdim_p1HSD.jpg ,12,1,0.942005497,1,9,2,3
10,1,26,537,folder/11shapebCFSdim_0HSD.jpg  ,11,1,1.53180263,1,9,1,3
10,1,26,538,folder/19shapebCFSdim_p8HSD.jpg ,19,1,2.87250148,1,10,2,4
10,1,26,539,folder/06shapebCFSdim_m5HSD.jpg ,6,1,1.162167643,1,9,1,3
10,1,26,540,folder/14shapebCFSdim_p3HSD.jpg ,14,1,0.761477868,1,9,1,3
10,1,26,541,folder/04shapebCFSdim_m7HSD.jpg ,4,1,1.151950717,1,10,1,4
10,1,26,542,folder/17shapebCFSdim_p6HSD.jpg ,17,1,1.342381144,1,10,2,4
10,1,26,543,folder/02shapebCFSdim_m9HSD.jpg ,2,1,1.04198892,1,10,2,4
10,1,26,544,folder/05shapebCFSdim_m6HSD.jpg ,5,1,3.462111691,1,10,2,4
10,1,26,545,folder/16shapebCFSdim_p5HSD.jpg ,16,1,1.552106786,1,10,1,4
10,1,26,546,folder/18shapebCFSdim_p7HSD.jpg ,18,1,1.321781521,1,9,2,3
10,1,27,547,folder/17shapebCFSdim_p6HSD.jpg ,17,1,1.352116303,1,10,1,4
10,1,27,548,folder/08shapebCFSdim_m3HSD.jpg ,8,1,0.791394954,1,10,1,4
10,1,27,549,folder/21shapebCFSdim_p10HSD.jpg,21,1,1.241271838,1,10,2,4
10,1,27,550,folder/01shapebCFSdim_m10HSD.jpg,1,1,0.75196913,1,9,2,3
10,1,27,551,folder/15shapebCFSdim_p4HSD.jpg ,15,1,1.101572722,1,9,1,3
10,1,27,552,folder/07shapebCFSdim_m4HSD.jpg ,7,1,0.701913349,1,9,1,3
10,1,27,553,folder/04shapebCFSdim_m7HSD.jpg ,4,1,0.711965435,1,9,1,3
10,1,27,554,folder/11shapebCFSdim_0HSD.jpg  ,11,1,1.441507402,1,9,2,3
10,1,27,555,folder/13shapebCFSdim_p2HSD.jpg ,13,1,1.140449912,1,9,1,3
10,1,27,556,folder/18shapebCFSdim_p7HSD.jpg ,18,1,0.741702441,1,9,1,3
10,1,27,557,folder/06shapebCFSdim_m5HSD.jpg ,6,1,0.670915788,1,9,1,3
10,1,27,558,folder/19shapebCFSdim_p8HSD.jpg ,19,1,1.284494875,1,10,2,4
10,1,27,559,folder/05shapebCFSdim_m6HSD.jpg ,5,1,1.391846303,1,9,1,3
10,1,27,560,folder/20shapebCFSdim_p9HSD.jpg ,20,1,1.501852887,1,9,2,3
10,1,27,561,folder/09shapebCFSdim_m2HSD.jpg ,9,1,1.121505524,1,9,2,3
10,1,27,562,folder/03shapebCFSdim_m8HSD.jpg ,3,1,1.430748684,1,9,1,3
10,1,27,563,folder/12shapebCFSdim_p1HSD.jpg ,12,1,1.131671442,1,9,1,3
10,1,27,564,folder/16shapebCFSdim_p5HSD.jpg ,16,1,0.791265882,1,9,1,3
10,1,27,565,folder/10shapebCFSdim_m1HSD.jpg ,10,1,0.731823592,1,9,1,3
10,1,27,566,folder/14shapebCFSdim_p3HSD.jpg ,14,1,1.87119334,1,9,2,3
10,1,27,567,folder/02shapebCFSdim_m9HSD.jpg ,2,1,1.750999377,1,9,1,3
10,1,28,568,folder/16shapebCFSdim_p5HSD.jpg ,16,1,1.891045899,1,9,2,3
10,1,28,569,folder/06shapebCFSdim_m5HSD.jpg ,6,1,1.25135347,1,9,1,3
10,1,28,570,folder/01shapebCFSdim_m10HSD.jpg,1,1,0.751142756,1,9,1,3
10,1,28,571,folder/10shapebCFSdim_m1HSD.jpg ,10,1,2.981472376,1,9,1,3
10,1,28,572,folder/19shapebCFSdim_p8HSD.jpg ,19,1,1.021240319,1,9,2,3
10,1,28,573,folder/07shapebCFSdim_m4HSD.jpg ,7,1,1.331164608,1,9,2,3
10,1,28,574,folder/11shapebCFSdim_0HSD.jpg  ,11,1,1.111316279,1,10,1,4
10,1,28,575,folder/08shapebCFSdim_m3HSD.jpg ,8,1,0.891338878,1,10,1,4
10,1,28,576,folder/20shapebCFSdim_p9HSD.jpg ,20,1,1.216378618,1,9,1,3
10,1,28,577,folder/03shapebCFSdim_m8HSD.jpg ,3,1,1.510006833,1,10,2,4
10,1,28,578,folder/18shapebCFSdim_p7HSD.jpg ,18,1,1.350616577,1,10,1,4
10,1,28,579,folder/21shapebCFSdim_p10HSD.jpg,21,1,0.75086564,1,9,1,3
10,1,28,580,folder/04shapebCFSdim_m7HSD.jpg ,4,1,0.85086679,1,10,1,4
10,1,28,581,folder/12shapebCFSdim_p1HSD.jpg ,12,1,0.840726064,1,9,1,3
10,1,28,582,folder/13shapebCFSdim_p2HSD.jpg ,13,1,3.660106063,1,9,2,3
10,1,28,583,folder/17shapebCFSdim_p6HSD.jpg ,17,1,1.480608524,1,9,2,3
10,1,28,584,folder/14shapebCFSdim_p3HSD.jpg ,14,1,1.08066146,1,9,1,3
10,1,28,585,folder/09shapebCFSdim_m2HSD.jpg ,9,1,1.270482603,1,9,2,3
10,1,28,586,folder/02shapebCFSdim_m9HSD.jpg ,2,1,1.01034071,1,10,1,4
10,1,28,587,folder/15shapebCFSdim_p4HSD.jpg ,15,1,1.169772332,1,9,2,3
10,1,28,588,folder/05shapebCFSdim_m6HSD.jpg ,5,1,1.161157769,1,10,1,4
10,1,29,589,folder/16shapebCFSdim_p5HSD.jpg ,16,1,0.980307926,1,9,1,3
10,1,29,590,folder/19shapebCFSdim_p8HSD.jpg ,19,1,1.270389609,1,9,1,3
10,1,29,591,folder/04shapebCFSdim_m7HSD.jpg ,4,1,1.230174733,1,9,2,3
10,1,29,592,folder/01shapebCFSdim_m10HSD.jpg,1,1,1.060054372,1,9,2,3
10,1,29,593,folder/15shapebCFSdim_p4HSD.jpg ,15,1,0.990440877,1,9,1,3
10,1,29,594,folder/20shapebCFSdim_p9HSD.jpg ,20,1,2.000529974,1,10,2,4
10,1,29,595,folder/11shapebCFSdim_0HSD.jpg  ,11,1,1.71039884,1,10,2,4
10,1,29,596,folder/02shapebCFSdim_m9HSD.jpg ,2,1,0.960287418,1,9,2,3
10,1,29,597,folder/06shapebCFSdim_m5HSD.jpg ,6,1,1.269403372,1,10,2,4
10,1,29,598,folder/08shapebCFSdim_m3HSD.jpg ,8,1,1.22013602,1,10,1,4
10,1,29,599,folder/05shapebCFSdim_m6HSD.jpg ,5,1,0.960118224,1,9,2,3
10,1,29,600,folder/18shapebCFSdim_p7HSD.jpg ,18,1,1.099309448,1,10,2,4
10,1,29,601,folder/17shapebCFSdim_p6HSD.jpg ,17,1,0.61970862,1,9,2,3
10,1,29,602,folder/13shapebCFSdim_p2HSD.jpg ,13,1,1.80051772,1,10,2,4
10,1,29,603,folder/21shapebCFSdim_p10HSD.jpg,21,1,0.669554464,1,9,2,3
10,1,29,604,folder/14shapebCFSdim_p3HSD.jpg ,14,1,0.749810046,1,9,2,3
10,1,29,605,folder/03shapebCFSdim_m8HSD.jpg ,3,1,0.760301289,1,9,2,3
10,1,29,606,folder/07shapebCFSdim_m4HSD.jpg ,7,1,0.730085004,1,9,2,3
10,1,29,607,folder/10shapebCFSdim_m1HSD.jpg ,10,1,1.599919509,1,10,1,4
10,1,29,608,folder/09shapebCFSdim_m2HSD.jpg ,9,1,0.949502263,1,10,1,4
10,1,29,609,folder/12shapebCFSdim_p1HSD.jpg ,12,1,0.849698608,1,9,1,3
11,1,1,1,folder/12shapebCFSdim_p1HSD.jpg ,12,1,3.412897435,1,9,1,3
11,1,1,2,folder/11shapebCFSdim_0HSD.jpg  ,11,1,5.096914262,1,10,2,4
11,1,1,3,folder/13shapebCFSdim_p2HSD.jpg ,13,1,2.816116289,1,10,1,4
11,1,1,4,folder/20shapebCFSdim_p9HSD.jpg ,20,1,1.616479496,1,10,1,4
11,1,1,5,folder/08shapebCFSdim_m3HSD.jpg ,8,1,1.465948152,1,10,1,4
11,1,1,6,folder/01shapebCFSdim_m10HSD.jpg,1,1,1.636062457,1,10,1,4
11,1,1,7,folder/17shapebCFSdim_p6HSD.jpg ,17,1,1.325503134,1,9,1,3
11,1,1,8,folder/10shapebCFSdim_m1HSD.jpg ,10,1,1.495546839,1,10,2,4
11,1,1,9,folder/02shapebCFSdim_m9HSD.jpg ,2,1,2.105945303,1,9,2,3
11,1,1,10,folder/09shapebCFSdim_m2HSD.jpg ,9,1,2.276319931,1,10,2,4
11,1,1,11,folder/06shapebCFSdim_m5HSD.jpg ,6,1,0.985451493,1,9,2,3
11,1,1,12,folder/18shapebCFSdim_p7HSD.jpg ,18,1,1.847331649,1,9,2,3
11,1,1,13,folder/04shapebCFSdim_m7HSD.jpg ,4,1,2.236258586,1,10,2,4
11,1,1,14,folder/16shapebCFSdim_p5HSD.jpg ,16,1,3.096619417,1,10,1,4
11,1,1,15,folder/05shapebCFSdim_m6HSD.jpg ,5,1,1.845797706,1,9,1,3
11,1,1,16,folder/14shapebCFSdim_p3HSD.jpg ,14,1,2.976027325,1,9,1,3
11,1,1,17,folder/03shapebCFSdim_m8HSD.jpg ,3,1,3.256388007,1,9,2,3
11,1,1,18,folder/15shapebCFSdim_p4HSD.jpg ,15,1,7.8770507,1,10,2,4
11,1,1,19,folder/19shapebCFSdim_p8HSD.jpg ,19,1,8.187730387,1,10,1,4
11,1,1,20,folder/07shapebCFSdim_m4HSD.jpg ,7,1,1.555047144,1,9,2,3
11,1,1,21,folder/21shapebCFSdim_p10HSD.jpg,21,1,5.530950062,1,10,1,4
11,1,2,22,folder/03shapebCFSdim_m8HSD.jpg ,3,1,3.126301456,1,9,1,3
11,1,2,23,folder/13shapebCFSdim_p2HSD.jpg ,13,1,2.285513323,1,10,1,4
11,1,2,24,folder/10shapebCFSdim_m1HSD.jpg ,10,1,8.667779801,1,10,2,4
11,1,2,25,folder/07shapebCFSdim_m4HSD.jpg ,7,1,3.016310426,1,10,1,4
11,1,2,26,folder/01shapebCFSdim_m10HSD.jpg,1,1,6.036713543,1,10,1,4
11,1,2,27,folder/12shapebCFSdim_p1HSD.jpg ,12,1,2.645816305,1,9,1,3
11,1,2,28,folder/11shapebCFSdim_0HSD.jpg  ,11,1,8.397941183,1,10,2,4
11,1,2,29,folder/05shapebCFSdim_m6HSD.jpg ,5,1,5.767028257,1,10,1,4
11,1,2,30,folder/16shapebCFSdim_p5HSD.jpg ,16,1,1.034570005,1,9,1,3
11,1,2,31,folder/14shapebCFSdim_p3HSD.jpg ,14,1,8.437622775,1,10,2,4
11,1,2,32,folder/06shapebCFSdim_m5HSD.jpg ,6,1,3.496206509,1,10,1,4
11,1,2,33,folder/15shapebCFSdim_p4HSD.jpg ,15,1,1.715288793,1,9,2,3
11,1,2,34,folder/19shapebCFSdim_p8HSD.jpg ,19,1,1.655272197,1,9,2,3
11,1,2,35,folder/18shapebCFSdim_p7HSD.jpg ,18,1,3.166108389,1,9,2,3
11,1,2,36,folder/08shapebCFSdim_m3HSD.jpg ,8,1,8.338187708,1,10,2,4
11,1,2,37,folder/21shapebCFSdim_p10HSD.jpg,21,1,3.29588392,1,9,2,3
11,1,2,38,folder/02shapebCFSdim_m9HSD.jpg ,2,1,2.995525379,1,10,2,4
11,1,2,39,folder/09shapebCFSdim_m2HSD.jpg ,9,1,6.566824166,1,10,1,4
11,1,2,40,folder/04shapebCFSdim_m7HSD.jpg ,4,1,6.927421371,1,10,1,4
11,1,2,41,folder/20shapebCFSdim_p9HSD.jpg ,20,1,1.825295063,1,9,1,3
11,1,2,42,folder/17shapebCFSdim_p6HSD.jpg ,17,1,2.554951973,1,9,1,3
11,1,3,43,folder/18shapebCFSdim_p7HSD.jpg ,18,1,6.066349863,1,10,1,4
11,1,3,44,folder/19shapebCFSdim_p8HSD.jpg ,19,1,3.265219685,1,10,1,4
11,1,3,45,folder/08shapebCFSdim_m3HSD.jpg ,8,1,2.785223454,1,10,2,4
11,1,3,46,folder/04shapebCFSdim_m7HSD.jpg ,4,1,1.734944844,1,9,2,3
11,1,3,47,folder/05shapebCFSdim_m6HSD.jpg ,5,1,1.734612676,1,10,1,4
11,1,3,48,folder/16shapebCFSdim_p5HSD.jpg ,16,1,1.199004181,1,9,2,3
11,1,3,49,folder/02shapebCFSdim_m9HSD.jpg ,2,1,3.88525692,1,10,1,4
11,1,3,50,folder/20shapebCFSdim_p9HSD.jpg ,20,1,0.944907447,1,9,1,3
11,1,3,51,folder/13shapebCFSdim_p2HSD.jpg ,13,1,2.935249393,1,10,1,4
11,1,3,52,folder/14shapebCFSdim_p3HSD.jpg ,14,1,1.614850693,1,10,1,4
11,1,3,53,folder/15shapebCFSdim_p4HSD.jpg ,15,1,2.03486174,1,9,1,3
11,1,3,54,folder/03shapebCFSdim_m8HSD.jpg ,3,1,6.185337411,1,10,2,4
11,1,3,55,folder/11shapebCFSdim_0HSD.jpg  ,11,1,3.1754237,1,10,1,4
11,1,3,56,folder/01shapebCFSdim_m10HSD.jpg,1,1,2.554633179,1,9,2,3
11,1,3,57,folder/07shapebCFSdim_m4HSD.jpg ,7,1,2.484734285,1,9,2,3
11,1,3,58,folder/09shapebCFSdim_m2HSD.jpg ,9,1,2.384775463,1,10,1,4
11,1,3,59,folder/17shapebCFSdim_p6HSD.jpg ,17,1,4.31549363,1,10,1,4
11,1,3,60,folder/10shapebCFSdim_m1HSD.jpg ,10,1,5.075580889,1,10,1,4
11,1,3,61,folder/12shapebCFSdim_p1HSD.jpg ,12,1,1.64375643,1,10,1,4
11,1,3,62,folder/21shapebCFSdim_p10HSD.jpg,21,1,2.915150141,1,9,1,3
11,1,3,63,folder/06shapebCFSdim_m5HSD.jpg ,6,1,3.094938362,1,9,1,3
11,1,4,64,folder/10shapebCFSdim_m1HSD.jpg ,10,1,3.64424504,1,10,2,4
11,1,4,65,folder/14shapebCFSdim_p3HSD.jpg ,14,1,2.48485496,1,9,2,3
11,1,4,66,folder/16shapebCFSdim_p5HSD.jpg ,16,1,6.376185758,1,10,1,4
11,1,4,67,folder/11shapebCFSdim_0HSD.jpg  ,11,1,3.815028968,1,9,1,3
11,1,4,68,folder/05shapebCFSdim_m6HSD.jpg ,5,1,2.92469965,1,9,1,3
11,1,4,69,folder/18shapebCFSdim_p7HSD.jpg ,18,1,3.414501046,1,10,1,4
11,1,4,70,folder/13shapebCFSdim_p2HSD.jpg ,13,1,4.455604303,1,9,1,3
11,1,4,71,folder/03shapebCFSdim_m8HSD.jpg ,3,1,2.964071778,1,9,1,3
11,1,4,72,folder/20shapebCFSdim_p9HSD.jpg ,20,1,3.604902458,1,9,1,3
11,1,4,73,folder/15shapebCFSdim_p4HSD.jpg ,15,1,3.494072923,1,9,1,3
11,1,4,74,folder/02shapebCFSdim_m9HSD.jpg ,2,1,2.123947358,1,10,2,4
11,1,4,75,folder/06shapebCFSdim_m5HSD.jpg ,6,1,2.094008106,1,10,1,4
11,1,4,76,folder/08shapebCFSdim_m3HSD.jpg ,8,1,3.094554877,1,10,2,4
11,1,4,77,folder/07shapebCFSdim_m4HSD.jpg ,7,1,1.182267038,1,9,1,3
11,1,4,78,folder/01shapebCFSdim_m10HSD.jpg,1,1,5.855551554,1,10,1,4
11,1,4,79,folder/21shapebCFSdim_p10HSD.jpg,21,1,1.493894398,1,9,1,3
11,1,4,80,folder/09shapebCFSdim_m2HSD.jpg ,9,1,5.335108315,1,9,2,3
11,1,4,81,folder/17shapebCFSdim_p6HSD.jpg ,17,1,5.325379038,1,9,2,3
11,1,4,82,folder/19shapebCFSdim_p8HSD.jpg ,19,1,3.734087366,1,9,1,3
11,1,4,83,folder/12shapebCFSdim_p1HSD.jpg ,12,1,2.484566335,1,10,1,4
11,1,4,84,folder/04shapebCFSdim_m7HSD.jpg ,4,1,5.685073046,1,10,1,4
11,1,5,85,folder/15shapebCFSdim_p4HSD.jpg ,15,1,4.424339801,1,10,2,4
11,1,5,86,folder/12shapebCFSdim_p1HSD.jpg ,12,1,3.513749812,1,10,2,4
11,1,5,87,folder/14shapebCFSdim_p3HSD.jpg ,14,1,3.024251348,1,9,2,3
11,1,5,88,folder/01shapebCFSdim_m10HSD.jpg,1,1,4.104672927,1,9,2,3
11,1,5,89,folder/04shapebCFSdim_m7HSD.jpg ,4,1,2.883913942,1,9,1,3
11,1,5,90,folder/20shapebCFSdim_p9HSD.jpg ,20,1,3.484162011,1,9,2,3
11,1,5,91,folder/13shapebCFSdim_p2HSD.jpg ,13,1,2.062656831,1,9,2,3
11,1,5,92,folder/07shapebCFSdim_m4HSD.jpg ,7,1,3.75412908,1,9,1,3
11,1,5,93,folder/11shapebCFSdim_0HSD.jpg  ,11,1,3.014310889,1,10,1,4
11,1,5,94,folder/10shapebCFSdim_m1HSD.jpg ,10,1,3.324473975,1,9,2,3
11,1,5,95,folder/19shapebCFSdim_p8HSD.jpg ,19,1,4.804405824,1,9,2,3
11,1,5,96,folder/03shapebCFSdim_m8HSD.jpg ,3,1,6.194607003,1,10,2,4
11,1,5,97,folder/09shapebCFSdim_m2HSD.jpg ,9,1,8.326172757,1,10,1,4
11,1,5,98,folder/17shapebCFSdim_p6HSD.jpg ,17,1,1.402652178,1,9,2,3
11,1,5,99,folder/05shapebCFSdim_m6HSD.jpg ,5,1,1.852455677,1,9,1,3
11,1,5,100,folder/16shapebCFSdim_p5HSD.jpg ,16,1,4.173906864,1,9,2,3
11,1,5,101,folder/18shapebCFSdim_p7HSD.jpg ,18,1,2.483927814,1,10,2,4
11,1,5,102,folder/08shapebCFSdim_m3HSD.jpg ,8,1,2.047360325,1,10,1,4
11,1,5,103,folder/21shapebCFSdim_p10HSD.jpg,21,1,3.123529972,1,10,1,4
11,1,5,104,folder/06shapebCFSdim_m5HSD.jpg ,6,1,1.062440673,1,9,1,3
11,1,5,105,folder/02shapebCFSdim_m9HSD.jpg ,2,1,2.103070249,1,9,1,3
11,1,6,106,folder/19shapebCFSdim_p8HSD.jpg ,19,1,2.833626624,1,9,1,3
11,1,6,107,folder/06shapebCFSdim_m5HSD.jpg ,6,1,4.794139107,1,10,2,4
11,1,6,108,folder/20shapebCFSdim_p9HSD.jpg ,20,1,1.072602577,1,9,1,3
11,1,6,109,folder/21shapebCFSdim_p10HSD.jpg,21,1,1.413139718,1,9,1,3
11,1,6,110,folder/04shapebCFSdim_m7HSD.jpg ,4,1,6.984810173,1,10,2,4
11,1,6,111,folder/11shapebCFSdim_0HSD.jpg  ,11,1,2.75340814,1,9,1,3
11,1,6,112,folder/01shapebCFSdim_m10HSD.jpg,1,1,4.653978672,1,10,2,4
11,1,6,113,folder/03shapebCFSdim_m8HSD.jpg ,3,1,1.062409882,1,9,1,3
11,1,6,114,folder/07shapebCFSdim_m4HSD.jpg ,7,1,3.253525082,1,10,1,4
11,1,6,115,folder/12shapebCFSdim_p1HSD.jpg ,12,1,0.80114884,1,9,1,3
11,1,6,116,folder/16shapebCFSdim_p5HSD.jpg ,16,1,2.002820315,1,9,2,3
11,1,6,117,folder/05shapebCFSdim_m6HSD.jpg ,5,1,4.723755647,1,9,2,3
11,1,6,118,folder/10shapebCFSdim_m1HSD.jpg ,10,1,5.61390302,1,9,2,3
11,1,6,119,folder/18shapebCFSdim_p7HSD.jpg ,18,1,4.383262359,1,9,1,3
11,1,6,120,folder/17shapebCFSdim_p6HSD.jpg ,17,1,3.322744712,1,10,1,4
11,1,6,121,folder/02shapebCFSdim_m9HSD.jpg ,2,1,1.172255667,1,9,2,3
11,1,6,122,folder/08shapebCFSdim_m3HSD.jpg ,8,1,3.042776225,1,9,1,3
11,1,6,123,folder/13shapebCFSdim_p2HSD.jpg ,13,1,1.462187629,1,9,2,3
11,1,6,124,folder/09shapebCFSdim_m2HSD.jpg ,9,1,6.404189231,1,9,1,3
11,1,6,125,folder/15shapebCFSdim_p4HSD.jpg ,15,1,2.082142133,1,9,2,3
11,1,6,126,folder/14shapebCFSdim_p3HSD.jpg ,14,1,4.063388657,1,9,1,3
11,1,7,127,folder/12shapebCFSdim_p1HSD.jpg ,12,1,1.842129244,1,10,1,4
11,1,7,128,folder/11shapebCFSdim_0HSD.jpg  ,11,1,1.421953357,1,10,1,4
11,1,7,129,folder/01shapebCFSdim_m10HSD.jpg,1,1,2.78177706,1,9,2,3
11,1,7,130,folder/08shapebCFSdim_m3HSD.jpg ,8,1,2.492202769,1,9,1,3
11,1,7,131,folder/20shapebCFSdim_p9HSD.jpg ,20,1,4.223249309,1,10,1,4
11,1,7,132,folder/18shapebCFSdim_p7HSD.jpg ,18,1,1.361590598,1,9,1,3
11,1,7,133,folder/21shapebCFSdim_p10HSD.jpg,21,1,1.422053816,1,9,2,3
11,1,7,134,folder/06shapebCFSdim_m5HSD.jpg ,6,1,3.632733006,1,9,1,3
11,1,7,135,folder/14shapebCFSdim_p3HSD.jpg ,14,1,3.431707827,1,10,1,4
11,1,7,136,folder/03shapebCFSdim_m8HSD.jpg ,3,1,1.711595139,1,10,1,4
11,1,7,137,folder/04shapebCFSdim_m7HSD.jpg ,4,1,1.441624337,1,9,2,3
11,1,7,138,folder/16shapebCFSdim_p5HSD.jpg ,16,1,2.211788903,1,10,1,4
11,1,7,139,folder/15shapebCFSdim_p4HSD.jpg ,15,1,2.661879783,1,10,1,4
11,1,7,140,folder/05shapebCFSdim_m6HSD.jpg ,5,1,4.032572645,1,10,2,4
11,1,7,141,folder/07shapebCFSdim_m4HSD.jpg ,7,1,1.251369725,1,9,2,3
11,1,7,142,folder/19shapebCFSdim_p8HSD.jpg ,19,1,6.363271341,1,10,2,4
11,1,7,143,folder/02shapebCFSdim_m9HSD.jpg ,2,1,1.921521664,1,10,1,4
11,1,7,144,folder/09shapebCFSdim_m2HSD.jpg ,9,1,5.132962848,1,10,2,4
11,1,7,145,folder/10shapebCFSdim_m1HSD.jpg ,10,1,1.211818139,1,9,2,3
11,1,7,146,folder/13shapebCFSdim_p2HSD.jpg ,13,1,7.413969515,1,10,1,4
11,1,7,147,folder/17shapebCFSdim_p6HSD.jpg ,17,1,7.27375745,1,10,2,4
11,1,8,148,folder/19shapebCFSdim_p8HSD.jpg ,19,1,1.421626166,1,10,1,4
11,1,8,149,folder/04shapebCFSdim_m7HSD.jpg ,4,1,1.571431904,1,10,1,4
11,1,8,150,folder/09shapebCFSdim_m2HSD.jpg ,9,1,1.241136598,1,9,1,3
11,1,8,151,folder/13shapebCFSdim_p2HSD.jpg ,13,1,2.301933539,1,9,2,3
11,1,8,152,folder/15shapebCFSdim_p4HSD.jpg ,15,1,2.241851318,1,9,1,3
11,1,8,153,folder/03shapebCFSdim_m8HSD.jpg ,3,1,3.932129879,1,9,1,3
11,1,8,154,folder/12shapebCFSdim_p1HSD.jpg ,12,1,3.532000993,1,9,2,3
11,1,8,155,folder/01shapebCFSdim_m10HSD.jpg,1,1,5.952891911,1,10,2,4
11,1,8,156,folder/11shapebCFSdim_0HSD.jpg  ,11,1,2.211790769,1,9,2,3
11,1,8,157,folder/16shapebCFSdim_p5HSD.jpg ,16,1,2.601734736,1,10,2,4
11,1,8,158,folder/14shapebCFSdim_p3HSD.jpg ,14,1,3.261682162,1,10,2,4
11,1,8,159,folder/10shapebCFSdim_m1HSD.jpg ,10,1,3.182211055,1,10,2,4
11,1,8,160,folder/17shapebCFSdim_p6HSD.jpg ,17,1,1.57111,1,9,1,3
11,1,8,161,folder/08shapebCFSdim_m3HSD.jpg ,8,1,1.631440102,1,9,1,3
11,1,8,162,folder/20shapebCFSdim_p9HSD.jpg ,20,1,6.492661832,1,10,2,4
11,1,8,163,folder/02shapebCFSdim_m9HSD.jpg ,2,1,1.480789016,1,10,1,4
11,1,8,164,folder/07shapebCFSdim_m4HSD.jpg ,7,1,1.120486035,1,10,1,4
11,1,8,165,folder/06shapebCFSdim_m5HSD.jpg ,6,1,0.969989836,1,9,1,3
11,1,8,166,folder/18shapebCFSdim_p7HSD.jpg ,18,1,8.282111404,1,10,2,4
11,1,8,167,folder/05shapebCFSdim_m6HSD.jpg ,5,1,1.200664398,1,9,2,3
11,1,8,168,folder/21shapebCFSdim_p10HSD.jpg,21,1,1.200944314,1,9,2,3
11,1,9,169,folder/07shapebCFSdim_m4HSD.jpg ,7,1,1.390589952,1,9,2,3
11,1,9,170,folder/04shapebCFSdim_m7HSD.jpg ,4,1,3.391585211,1,9,1,3
11,1,9,171,folder/03shapebCFSdim_m8HSD.jpg ,3,1,4.7620389,1,9,1,3
11,1,9,172,folder/21shapebCFSdim_p10HSD.jpg,21,1,4.562163556,1,9,1,3
11,1,9,173,folder/17shapebCFSdim_p6HSD.jpg ,17,1,4.471840084,1,10,1,4
11,1,9,174,folder/14shapebCFSdim_p3HSD.jpg ,14,1,2.510801669,1,10,2,4
11,1,9,175,folder/10shapebCFSdim_m1HSD.jpg ,10,1,7.122811208,1,10,2,4
11,1,9,176,folder/06shapebCFSdim_m5HSD.jpg ,6,1,2.710778715,1,10,2,4
11,1,9,177,folder/19shapebCFSdim_p8HSD.jpg ,19,1,3.741549941,1,10,2,4
11,1,9,178,folder/05shapebCFSdim_m6HSD.jpg ,5,1,1.470414998,1,9,1,3
11,1,9,179,folder/15shapebCFSdim_p4HSD.jpg ,15,1,4.300536756,1,9,1,3
11,1,9,180,folder/20shapebCFSdim_p9HSD.jpg ,20,1,1.739482913,1,10,2,4
11,1,9,181,folder/08shapebCFSdim_m3HSD.jpg ,8,1,1.409981637,1,9,1,3
11,1,9,182,folder/12shapebCFSdim_p1HSD.jpg ,12,1,1.590540873,1,9,2,3
11,1,9,183,folder/01shapebCFSdim_m10HSD.jpg,1,1,5.231061779,1,10,1,4
11,1,9,184,folder/02shapebCFSdim_m9HSD.jpg ,2,1,9.683636141,1,10,2,4
11,1,9,185,folder/18shapebCFSdim_p7HSD.jpg ,18,1,1.240186748,1,9,2,3
11,1,9,186,folder/16shapebCFSdim_p5HSD.jpg ,16,1,1.930395018,1,9,1,3
11,1,9,187,folder/11shapebCFSdim_0HSD.jpg  ,11,1,7.392801604,1,10,2,4
11,1,9,188,folder/09shapebCFSdim_m2HSD.jpg ,9,1,1.820391236,1,9,2,3
11,1,9,189,folder/13shapebCFSdim_p2HSD.jpg ,13,1,2.220065724,1,10,1,4
11,1,10,190,folder/16shapebCFSdim_p5HSD.jpg ,16,1,1.870142048,1,9,2,3
11,1,10,191,folder/15shapebCFSdim_p4HSD.jpg ,15,1,6.43188293,1,10,2,4
11,1,10,192,folder/19shapebCFSdim_p8HSD.jpg ,19,1,3.900030604,1,9,2,3
11,1,10,193,folder/06shapebCFSdim_m5HSD.jpg ,6,1,3.68060309,1,9,2,3
11,1,10,194,folder/05shapebCFSdim_m6HSD.jpg ,5,1,2.860225538,1,10,2,4
11,1,10,195,folder/14shapebCFSdim_p3HSD.jpg ,14,1,2.099610481,1,9,1,3
11,1,10,196,folder/09shapebCFSdim_m2HSD.jpg ,9,1,6.261757739,1,10,2,4
11,1,10,197,folder/20shapebCFSdim_p9HSD.jpg ,20,1,1.509968139,1,9,1,3
11,1,10,198,folder/21shapebCFSdim_p10HSD.jpg,21,1,1.739726441,1,9,1,3
11,1,10,199,folder/04shapebCFSdim_m7HSD.jpg ,4,1,5.471458776,1,10,2,4
11,1,10,200,folder/18shapebCFSdim_p7HSD.jpg ,18,1,2.010186785,1,9,2,3
11,1,10,201,folder/02shapebCFSdim_m9HSD.jpg ,2,1,3.520458478,1,9,2,3
11,1,10,202,folder/08shapebCFSdim_m3HSD.jpg ,8,1,3.360428011,1,9,2,3
11,1,10,203,folder/10shapebCFSdim_m1HSD.jpg ,10,1,3.868006285,1,10,2,4
11,1,10,204,folder/17shapebCFSdim_p6HSD.jpg ,17,1,1.12908787,1,9,2,3
11,1,10,205,folder/11shapebCFSdim_0HSD.jpg  ,11,1,1.649234397,1,9,2,3
11,1,10,206,folder/12shapebCFSdim_p1HSD.jpg ,12,1,1.529595577,1,9,2,3
11,1,10,207,folder/03shapebCFSdim_m8HSD.jpg ,3,1,1.419383101,1,9,1,3
11,1,10,208,folder/01shapebCFSdim_m10HSD.jpg,1,1,2.379690935,1,10,2,4
11,1,10,209,folder/13shapebCFSdim_p2HSD.jpg ,13,1,1.649667957,1,10,1,4
11,1,10,210,folder/07shapebCFSdim_m4HSD.jpg ,7,1,1.499023713,1,9,1,3
11,1,11,211,folder/02shapebCFSdim_m9HSD.jpg ,2,1,1.279262165,1,9,1,3
11,1,11,212,folder/17shapebCFSdim_p6HSD.jpg ,17,1,1.699442095,1,9,1,3
11,1,11,213,folder/01shapebCFSdim_m10HSD.jpg,1,1,3.218209567,1,9,2,3
11,1,11,214,folder/09shapebCFSdim_m2HSD.jpg ,9,1,3.069509188,1,10,1,4
11,1,11,215,folder/08shapebCFSdim_m3HSD.jpg ,8,1,2.499408132,1,9,2,3
11,1,11,216,folder/06shapebCFSdim_m5HSD.jpg ,6,1,2.259249998,1,9,2,3
11,1,11,217,folder/18shapebCFSdim_p7HSD.jpg ,18,1,2.569245445,1,9,2,3
11,1,11,218,folder/16shapebCFSdim_p5HSD.jpg ,16,1,3.549780359,1,10,2,4
11,1,11,219,folder/04shapebCFSdim_m7HSD.jpg ,4,1,1.468988668,1,10,2,4
11,1,11,220,folder/12shapebCFSdim_p1HSD.jpg ,12,1,1.869086141,1,10,2,4
11,1,11,221,folder/03shapebCFSdim_m8HSD.jpg ,3,1,2.519526978,1,10,2,4
11,1,11,222,folder/07shapebCFSdim_m4HSD.jpg ,7,1,3.049414912,1,10,1,4
11,1,11,223,folder/15shapebCFSdim_p4HSD.jpg ,15,1,2.909330054,1,10,1,4
11,1,11,224,folder/20shapebCFSdim_p9HSD.jpg ,20,1,5.169830346,1,10,2,4
11,1,11,225,folder/14shapebCFSdim_p3HSD.jpg ,14,1,1.078220502,1,9,2,3
11,1,11,226,folder/21shapebCFSdim_p10HSD.jpg,21,1,1.869382852,1,9,2,3
11,1,11,227,folder/19shapebCFSdim_p8HSD.jpg ,19,1,2.519067915,1,10,1,4
11,1,11,228,folder/05shapebCFSdim_m6HSD.jpg ,5,1,3.659645116,0,10,1,3
11,1,11,229,folder/10shapebCFSdim_m1HSD.jpg ,10,1,1.347968304,1,9,2,3
11,1,11,230,folder/11shapebCFSdim_0HSD.jpg  ,11,1,5.130088416,1,10,1,4
11,1,11,231,folder/13shapebCFSdim_p2HSD.jpg ,13,1,3.39905214,1,10,2,4
