Subject,Condition,Block,Trial,Stimulus,Group,RT,Acc,Side,Eye,Response
1,4,1,1,f42887_e_085,1,2.1811519,1,10,2,4
1,4,1,2,f42887_e_099,1,3.328366295,1,10,2,4
1,4,1,3,f42887_e_202,1,2.573645764,1,10,1,4
1,4,1,4,f42887_e_104,1,1.773932335,1,9,1,3
1,4,1,5,f42887_e_264,1,1.403189413,1,10,2,4
1,4,1,6,f42887_e_044,1,1.853868875,1,9,1,3
1,4,1,7,f42887_e_232,1,1.5229877,1,9,1,3
1,4,1,8,f42887_e_237,1,2.213567288,1,10,1,4
1,4,1,9,f42887_e_074,1,1.539559283,1,10,1,4
1,4,1,10,f42887_e_112,1,2.293605842,1,10,1,4
1,4,1,11,f42887_e_019,1,2.963660204,1,9,2,3
1,4,1,12,f42887_e_014,1,3.885398177,1,9,2,3
1,4,1,13,f42887_e_081,1,1.64341113,1,9,1,3
1,4,1,14,f42887_e_249,1,4.334084957,1,10,1,4
1,4,1,15,f42887_e_157,1,8.044860094,1,10,2,4
1,4,1,16,f42887_e_073,1,3.292544031,1,10,1,4
1,4,1,17,f42887_e_103,1,3.299144736,1,10,1,4
1,4,1,18,f42887_e_209,1,3.203142947,1,9,2,3
1,4,1,19,f42887_e_282,1,1.532702613,1,9,1,3
1,4,1,20,f42887_e_166,1,1.903469172,1,10,1,4
1,4,1,21,f42887_e_138,1,3.6995322,1,9,2,3
1,4,1,22,f42887_e_275,1,1.311705761,1,9,1,3
1,4,1,23,f42887_e_127,1,2.962969126,1,9,1,3
1,4,1,24,f42887_e_128,1,2.89399312,1,9,1,3
1,4,1,25,f42887_e_221,1,7.990914274,1,10,2,4
1,4,1,26,f42887_e_291,1,1.518571887,1,9,1,3
1,4,1,27,f42887_e_108,1,1.852758546,1,9,1,3
1,4,1,28,f42887_e_098,1,2.803564125,1,10,1,4
1,4,1,29,f42887_e_217,1,3.803330863,1,10,1,4
1,4,1,30,f42887_e_046,1,1.261758991,1,9,1,3
1,4,1,31,f42887_e_253,1,3.293081157,1,10,2,4
1,4,1,32,f42887_e_057,1,3.142973685,1,9,1,3
1,4,1,33,f42887_e_248,1,2.172448412,1,10,1,4
1,4,1,34,f42887_e_125,1,1.857999486,1,10,2,4
1,4,1,35,f42887_e_233,1,1.632530838,1,9,2,3
1,4,1,36,f42887_e_151,1,2.532618016,1,9,2,3
1,4,1,37,f42887_e_009,1,2.74272058,1,10,2,4
1,4,1,38,f42887_e_055,1,1.932835354,1,10,1,4
1,4,1,39,f42887_e_100,1,2.122203067,1,9,2,3
1,4,1,40,f42887_e_038,1,2.958052265,1,10,2,4
1,4,1,41,f42887_e_027,1,1.462221597,1,10,2,4
1,4,1,42,f42887_e_271,1,1.41230002,1,9,2,3
1,4,1,43,f42887_e_072,1,4.533348905,1,10,1,4
1,4,1,44,f42887_e_026,1,3.302719249,1,10,1,4
1,4,1,45,f42887_e_226,1,1.991981993,1,10,1,4
1,4,1,46,f42887_e_173,1,1.291418774,1,9,1,3
1,4,1,47,f42887_e_284,1,9.594015793,1,10,2,4
1,4,1,48,f42887_e_207,1,8.743542908,1,10,1,4
1,4,1,49,f42887_e_141,1,8.593856241,1,10,2,4
1,4,1,50,f42887_e_080,1,1.881527576,1,10,1,4
1,4,1,51,f42887_e_115,1,1.642144671,1,10,1,4
1,4,1,52,f42887_e_002,1,4.852633517,1,10,2,4
1,4,1,53,f42887_e_147,1,1.846695278,1,10,2,4
1,4,1,54,f42887_e_156,1,4.02280871,1,9,1,3
1,4,1,55,f42887_e_293,1,3.112519878,1,10,1,4
1,4,1,56,f42887_e_075,1,1.607381107,1,9,1,3
1,4,1,57,f42887_e_091,1,1.991654493,1,9,1,3
1,4,1,58,f42887_e_016,1,4.068327225,1,9,2,3
1,4,1,59,f42887_e_058,1,1.721740026,1,10,1,4
1,4,1,60,f42887_e_068,1,1.851300189,1,9,1,3
1,4,1,61,f42887_e_250,1,1.99781231,1,9,2,3
1,4,1,62,f42887_e_107,1,1.906601731,1,9,1,3
1,4,1,63,f42887_e_162,1,3.441776925,1,10,2,4
1,4,1,64,f42887_e_090,1,1.880902433,1,10,2,4
1,4,1,65,f42887_e_219,1,2.93196513,1,10,2,4
1,4,1,66,f42887_e_285,1,1.577444831,1,9,2,3
1,4,1,67,f42887_e_092,1,2.417626801,1,10,1,4
1,4,1,68,f42887_e_129,1,1.291265753,1,9,1,3
1,4,1,69,f42887_e_230,1,1.190951098,1,9,2,3
1,4,1,70,f42887_e_153,1,4.808187386,1,9,2,3
1,4,1,71,f42887_e_042,1,2.191193691,1,9,1,3
1,4,1,72,f42887_e_215,1,2.121730322,1,10,1,4
1,4,1,73,f42887_e_277,1,7.839915739,1,10,2,4
1,4,1,74,f42887_e_200,1,1.781452715,1,9,1,3
1,4,1,75,f42887_e_198,1,8.979967735,1,10,2,4
1,4,1,76,f42887_e_287,1,2.717357802,1,9,1,3
1,4,1,77,f42887_e_183,1,1.387019662,1,9,1,3
1,4,1,78,f42887_e_048,1,1.567205544,1,9,1,3
1,4,1,79,f42887_e_278,1,2.387346852,1,10,1,4
1,4,1,80,f42887_e_102,1,8.909154243,1,10,2,4
1,4,1,81,f42887_e_168,1,1.586055946,1,9,2,3
1,4,1,82,f42887_e_205,1,1.286504401,1,9,2,3
1,4,1,83,f42887_e_231,1,1.986820985,1,9,1,3
1,4,1,84,f42887_e_180,1,1.00606389,1,9,1,3
1,4,1,85,f42887_e_047,1,1.116257986,1,9,1,3
1,4,1,86,f42887_e_022,1,1.826968743,1,9,2,3
1,4,1,87,f42887_e_052,1,1.3662111,1,9,1,3
1,4,1,88,f42887_e_076,1,2.016776233,1,10,1,4
1,4,1,89,f42887_e_299,1,1.096327112,1,9,2,3
1,4,1,90,f42887_e_256,1,0.866307982,1,9,1,3
1,4,1,91,f42887_e_135,1,2.226964948,1,10,2,4
1,4,1,92,f42887_e_159,1,1.65657926,1,9,2,3
1,4,1,93,f42887_e_245,1,4.135487828,1,10,2,4
1,4,1,94,f42887_e_087,1,5.297314092,1,10,2,4
1,4,1,95,f42887_e_276,1,1.045886137,1,9,2,3
1,4,1,96,f42887_e_137,1,2.697317762,1,10,1,4
1,4,1,97,f42887_e_283,1,5.857966829,1,10,2,4
1,4,1,98,f42887_e_008,1,5.59710201,1,10,2,4
1,4,1,99,f42887_e_170,1,2.956211047,1,10,1,4
1,4,1,100,f42887_e_096,1,1.616492337,1,9,2,3
1,4,1,101,f42887_e_049,1,1.135627163,1,9,1,3
1,4,1,102,f42887_e_243,1,2.695511067,1,10,2,4
1,4,1,103,f42887_e_007,1,1.726238258,1,9,1,3
1,4,1,104,f42887_e_297,1,1.585951756,1,10,1,4
1,4,1,105,f42887_e_179,1,1.626137582,1,10,2,4
1,4,1,106,f42887_e_088,1,1.496050867,1,10,1,4
1,4,1,107,f42887_e_240,1,1.255728381,1,9,2,3
1,4,1,108,f42887_e_054,1,1.305655245,1,9,2,3
1,4,1,109,f42887_e_017,1,1.665727811,1,10,1,4
1,4,1,110,f42887_e_225,1,1.086067298,1,9,2,3
1,4,1,111,f42887_e_192,1,1.055584255,1,9,2,3
1,4,1,112,f42887_e_247,1,1.165253356,1,9,2,3
1,4,1,113,f42887_e_020,1,1.52540803,1,9,1,3
1,4,1,114,f42887_e_062,1,1.305850252,1,9,2,3
1,4,1,115,f42887_e_274,1,0.765424788,1,9,1,3
1,4,1,116,f42887_e_131,1,2.365295778,1,10,2,4
1,4,1,117,f42887_e_120,1,1.895428461,1,9,2,3
1,4,1,118,f42887_e_257,1,2.255877979,1,10,2,4
1,4,1,119,f42887_e_111,1,0.925245929,1,9,1,3
1,4,1,120,f42887_e_227,1,1.915694299,1,9,1,3
1,4,1,121,f42887_e_229,1,0.82518133,1,9,1,3
1,4,1,122,f42887_e_178,1,1.99551483,1,10,2,4
1,4,1,123,f42887_e_155,1,1.565335713,1,9,2,3
1,4,1,124,f42887_e_210,1,3.716126799,1,10,2,4
1,4,1,125,f42887_e_163,1,0.925027595,1,10,1,4
1,4,1,126,f42887_e_119,1,1.355156017,1,9,1,3
1,4,1,127,f42887_e_255,1,1.345729727,1,9,1,3
1,4,1,128,f42887_e_263,1,2.035582159,1,10,2,4
1,4,1,129,f42887_e_204,1,0.944829397,1,9,1,3
1,4,1,130,f42887_e_252,1,1.195249347,1,9,2,3
1,4,1,131,f42887_e_083,1,2.015311656,1,9,2,3
1,4,1,132,f42887_e_116,1,3.285977228,1,10,1,4
1,4,1,133,f42887_e_121,1,0.91497865,1,9,2,3
1,4,1,134,f42887_e_150,1,3.915558696,1,10,2,4
1,4,1,135,f42887_e_268,1,1.465117473,0,9,1,4
1,4,1,136,f42887_e_224,1,3.115381541,1,10,1,4
1,4,1,137,f42887_e_136,1,1.954521605,1,10,2,4
1,4,1,138,f42887_e_234,1,2.834965911,1,10,2,4
1,4,1,139,f42887_e_106,1,1.854915757,1,9,2,3
1,4,1,140,f42887_e_082,1,1.04463554,1,9,2,3
1,4,1,141,f42887_e_220,1,3.305578113,1,10,2,4
1,4,1,142,f42887_e_011,1,1.114210253,1,9,2,3
1,4,1,143,f42887_e_060,1,3.685977166,1,10,1,4
1,4,1,144,f42887_e_041,1,6.18620934,1,10,2,4
1,4,1,145,f42887_e_160,1,2.114874273,1,9,2,3
1,4,1,146,f42887_e_196,1,2.034815814,1,10,2,4
1,4,1,147,f42887_e_061,1,1.984577,1,10,2,4
1,4,1,148,f42887_e_025,1,1.144587861,1,9,2,3
1,4,1,149,f42887_e_188,1,1.624847796,1,9,2,3
1,4,1,150,f42887_e_290,1,1.364854446,1,9,1,3
1,4,1,151,f42887_e_043,1,1.674836553,1,9,2,3
1,4,1,152,f42887_e_063,1,1.75485178,1,10,1,4
1,4,1,153,f42887_e_281,1,2.664854477,1,10,2,4
1,4,1,154,f42887_e_223,1,2.935139676,1,10,1,4
1,4,1,155,f42887_e_028,1,0.804031894,1,9,1,3
1,4,1,156,f42887_e_037,1,2.784115327,1,10,2,4
1,4,1,157,f42887_e_035,1,1.45373209,1,10,1,4
1,4,1,158,f42887_e_251,1,2.934922897,1,10,2,4
1,4,1,159,f42887_e_105,1,1.04380948,1,9,2,3
1,4,1,160,f42887_e_148,1,2.544544568,1,10,2,4
1,4,1,161,f42887_e_039,1,1.144595014,1,10,2,4
1,4,1,162,f42887_e_070,1,1.153460852,1,10,1,4
1,4,1,163,f42887_e_000,1,1.003720069,1,9,1,3
1,4,1,164,f42887_e_079,1,1.574205594,1,10,1,4
1,4,1,165,f42887_e_086,1,1.484156039,1,9,2,3
1,4,1,166,f42887_e_182,1,0.864032274,1,10,2,4
1,4,1,167,f42887_e_289,1,1.203831848,1,9,2,3
1,4,1,168,f42887_e_018,1,4.484901857,1,10,2,4
1,4,1,169,f42887_e_296,1,1.153603298,1,9,1,3
1,4,1,170,f42887_e_045,1,1.703606828,1,10,1,4
1,4,1,171,f42887_e_214,1,2.354588412,1,10,1,4
1,4,1,172,f42887_e_280,1,4.174825201,1,10,2,4
1,4,1,173,f42887_e_286,1,1.684227076,1,9,1,3
1,4,1,174,f42887_e_246,1,1.273643556,1,9,1,3
1,4,1,175,f42887_e_004,1,3.034466854,1,10,2,4
1,4,1,176,f42887_e_262,1,2.964298099,1,10,2,4
1,4,1,177,f42887_e_069,1,1.153184669,1,9,1,3
1,4,1,178,f42887_e_143,1,1.623353984,1,10,1,4
1,4,1,179,f42887_e_242,1,0.883467076,1,9,1,3
1,4,1,180,f42887_e_003,1,0.693211722,1,9,1,3
1,4,1,181,f42887_e_134,1,1.67368206,1,9,1,3
1,4,1,182,f42887_e_241,1,2.674059012,1,9,1,3
1,4,1,183,f42887_e_266,1,4.61487785,1,10,2,4
1,4,1,184,f42887_e_201,1,1.633592338,1,10,1,4
1,4,1,185,f42887_e_006,1,1.483543648,1,10,1,4
1,4,1,186,f42887_e_095,1,1.563123763,1,9,1,3
1,4,1,187,f42887_e_109,1,1.503027902,1,9,2,3
1,4,1,188,f42887_e_164,1,2.723229484,1,10,2,4
1,4,1,189,f42887_e_050,1,1.59296549,1,9,1,3
1,4,1,190,f42887_e_213,1,2.503441865,1,10,1,4
1,4,1,191,f42887_e_114,1,1.182879907,1,9,2,3
1,4,1,192,f42887_e_239,1,3.3136605,1,10,2,4
1,4,1,193,f42887_e_036,1,1.753276482,1,10,1,4
1,4,1,194,f42887_e_023,1,0.984958618,1,9,2,3
1,4,1,195,f42887_e_272,1,2.543005969,1,10,2,4
1,4,1,196,f42887_e_238,1,1.423242204,1,9,1,3
1,4,1,197,f42887_e_195,1,1.033170537,1,9,1,3
1,4,1,198,f42887_e_261,1,3.353519137,1,10,2,4
1,4,1,199,f42887_e_113,1,3.013086332,1,10,1,4
1,4,1,200,f42887_e_142,1,1.092451535,1,10,1,4
1,4,1,201,f42887_e_236,1,2.23308451,1,10,2,4
1,4,1,202,f42887_e_124,1,1.1324719,1,9,1,3
1,4,1,203,f42887_e_279,1,1.929552264,1,9,2,3
1,4,1,204,f42887_e_294,1,2.812922613,1,10,2,4
1,4,1,205,f42887_e_010,1,1.332644017,1,9,2,3
1,4,1,206,f42887_e_158,1,1.412581801,1,9,2,3
1,4,1,207,f42887_e_030,1,1.872663294,1,10,1,4
1,4,1,208,f42887_e_118,1,1.712694731,1,10,2,4
1,4,1,209,f42887_e_189,1,2.813285258,1,10,2,4
1,4,1,210,f42887_e_077,1,1.912486786,1,9,2,3
1,4,1,211,f42887_e_021,1,1.612019919,1,9,2,3
1,4,1,212,f42887_e_270,1,2.452658772,1,10,1,4
1,4,1,213,f42887_e_211,1,3.883244077,1,10,2,4
1,4,1,214,f42887_e_259,1,1.352188919,1,9,2,3
1,4,1,215,f42887_e_212,1,2.212565815,1,9,2,3
1,4,1,216,f42887_e_145,1,1.632353248,1,9,1,3
1,4,1,217,f42887_e_174,1,4.851616182,1,10,2,4
1,4,1,218,f42887_e_132,1,1.25173866,1,9,2,3
1,4,1,219,f42887_e_186,1,1.812542551,1,9,1,3
1,4,1,220,f42887_e_024,1,2.062464253,1,9,2,3
1,4,1,221,f42887_e_034,1,0.951272415,1,9,1,3
1,4,1,222,f42887_e_117,1,0.881635499,1,9,2,3
1,4,1,223,f42887_e_199,1,1.111706259,1,9,2,3
1,4,1,224,f42887_e_029,1,3.183088911,1,10,1,4
1,4,1,225,f42887_e_288,1,6.52385668,1,10,2,4
1,4,1,226,f42887_e_265,1,1.141531812,1,9,1,3
1,4,1,227,f42887_e_269,1,1.771934053,1,10,1,4
1,4,1,228,f42887_e_122,1,1.091813329,1,10,1,4
1,4,1,229,f42887_e_292,1,1.262050103,1,9,2,3
1,4,1,230,f42887_e_084,1,2.632050629,1,10,1,4
1,4,1,231,f42887_e_093,1,2.001540776,1,10,1,4
1,4,1,232,f42887_e_172,1,3.392752941,1,10,2,4
1,4,1,233,f42887_e_161,1,5.322739384,1,10,2,4
1,4,1,234,f42887_e_175,1,3.282161677,1,10,2,4
1,4,1,235,f42887_e_101,1,0.810852487,1,9,2,3
1,4,1,236,f42887_e_059,1,1.131579594,1,9,2,3
1,4,1,237,f42887_e_222,1,2.722202507,1,10,2,4
1,4,1,238,f42887_e_167,1,0.830846808,1,9,2,3
1,4,1,239,f42887_e_254,1,2.211783608,1,10,1,4
1,4,1,240,f42887_e_126,1,1.352004797,1,9,1,3
1,4,1,241,f42887_e_216,1,2.1016654,1,10,1,4
1,4,1,242,f42887_e_185,1,1.911619361,1,9,2,3
1,4,1,243,f42887_e_012,1,1.420855463,1,9,1,3
1,4,1,244,f42887_e_140,1,1.231249512,1,9,2,3
1,4,1,245,f42887_e_123,1,2.671319267,1,10,2,4
1,4,1,246,f42887_e_177,1,1.390707385,1,10,2,4
1,4,1,247,f42887_e_078,1,3.29228651,1,10,2,4
1,4,1,248,f42887_e_154,1,1.611370516,1,10,1,4
1,4,1,249,f42887_e_001,1,1.651201783,1,9,2,3
1,4,1,250,f42887_e_051,1,0.866116706,1,9,2,3
1,4,1,251,f42887_e_169,1,1.230333879,1,9,1,3
1,4,1,252,f42887_e_176,1,3.35165677,1,10,1,4
1,4,1,253,f42887_e_267,1,0.800297518,1,9,1,3
1,4,1,254,f42887_e_033,1,2.691487757,1,10,1,4
1,4,1,255,f42887_e_203,1,2.561594495,1,10,1,4
1,4,1,256,f42887_e_187,1,2.227106461,1,9,2,3
1,4,1,257,f42887_e_146,1,1.330363022,1,10,1,4
1,4,1,258,f42887_e_260,1,1.230362804,1,9,2,3
1,4,1,259,f42887_e_184,1,1.430508484,1,9,2,3
1,4,1,260,f42887_e_053,1,1.400023264,1,10,1,4
1,4,1,261,f42887_e_206,1,1.451395111,1,10,1,4
1,4,1,262,f42887_e_235,1,1.19146583,1,10,1,4
1,4,1,263,f42887_e_298,1,1.180995458,1,10,1,4
1,4,1,264,f42887_e_133,1,2.021701491,1,10,2,4
1,4,1,265,f42887_e_130,1,1.230867584,1,10,1,4
1,4,1,266,f42887_e_089,1,1.60102735,1,10,1,4
1,4,1,267,f42887_e_171,1,1.870451344,1,9,1,3
1,4,1,268,f42887_e_066,1,1.03070853,1,10,2,4
1,4,1,269,f42887_e_097,1,1.460270902,1,10,2,4
1,4,1,270,f42887_e_139,1,3.111846527,1,10,2,4
1,4,1,271,f42887_e_258,1,0.83032119,1,9,2,3
1,4,1,272,f42887_e_218,1,1.325519561,1,10,1,4
1,4,1,273,f42887_e_056,1,1.100421645,1,10,2,4
1,4,1,274,f42887_e_152,1,1.83040703,1,9,2,3
1,4,1,275,f42887_e_015,1,1.110440732,1,9,2,3
1,4,1,276,f42887_e_071,1,1.350380669,1,10,2,4
1,4,1,277,f42887_e_197,1,1.520445761,1,10,1,4
1,4,1,278,f42887_e_094,1,0.850266059,1,9,2,3
1,4,1,279,f42887_e_067,1,1.13019868,1,9,2,3
1,4,1,280,f42887_e_031,1,2.660963971,1,9,2,3
1,4,1,281,f42887_e_181,1,1.220199094,1,10,1,4
1,4,1,282,f42887_e_032,1,0.879810143,1,9,2,3
1,4,1,283,f42887_e_228,1,4.320897855,1,10,2,4
1,4,1,284,f42887_e_191,1,4.311260696,1,9,1,3
1,4,1,285,f42887_e_064,1,1.059975498,1,10,1,4
1,4,1,286,f42887_e_190,1,0.830021681,1,9,1,3
1,4,1,287,f42887_e_110,1,1.069878887,1,9,1,3
1,4,1,288,f42887_e_295,1,0.849133648,1,9,1,3
1,4,1,289,f42887_e_244,1,1.439284438,1,10,2,4
1,4,1,290,f42887_e_193,1,1.509283066,1,9,2,3
1,4,1,291,f42887_e_065,1,2.29015729,0,10,2,3
1,4,1,292,f42887_e_005,1,0.709685024,1,9,2,3
1,4,1,293,f42887_e_194,1,1.480133662,1,9,1,3
1,4,1,294,f42887_e_040,1,1.230120211,1,9,1,3
1,4,1,295,f42887_e_273,1,1.599808165,1,10,1,4
1,4,1,296,f42887_e_208,1,0.749706945,1,9,2,3
1,4,1,297,f42887_e_013,1,1.769953811,1,10,1,4
1,4,1,298,f42887_e_165,1,3.090131352,1,10,2,4
1,4,1,299,f42887_e_144,1,0.96016189,1,9,1,3
1,4,1,300,f42887_e_149,1,3.230476947,1,10,1,4
1,4,2,301,f42887_e_167,1,2.020318089,1,10,2,4
1,4,2,302,f42887_e_056,1,0.739478854,1,9,2,3
1,4,2,303,f42887_e_010,1,1.730055675,1,10,2,4
1,4,2,304,f42887_e_104,1,2.000730578,1,10,1,4
1,4,2,305,f42887_e_257,1,1.27921635,1,9,1,3
1,4,2,306,f42887_e_231,1,1.679889017,1,10,2,4
1,4,2,307,f42887_e_049,1,1.078980786,1,9,2,3
1,4,2,308,f42887_e_127,1,0.979716123,1,9,1,3
1,4,2,309,f42887_e_154,1,2.109533497,1,10,1,4
1,4,2,310,f42887_e_283,1,1.349417139,1,10,2,4
1,4,2,311,f42887_e_024,1,0.979044327,1,9,1,3
1,4,2,312,f42887_e_054,1,2.169455189,1,10,1,4
1,4,2,313,f42887_e_239,1,1.029014734,1,9,2,3
1,4,2,314,f42887_e_157,1,0.798865598,1,9,1,3
1,4,2,315,f42887_e_055,1,1.268777702,1,9,2,3
1,4,2,316,f42887_e_006,1,1.809349655,1,9,2,3
1,4,2,317,f42887_e_262,1,2.519969595,1,10,1,4
1,4,2,318,f42887_e_017,1,1.979337927,1,10,1,4
1,4,2,319,f42887_e_248,1,0.888871921,1,9,2,3
1,4,2,320,f42887_e_083,1,1.19888513,1,9,2,3
1,4,2,321,f42887_e_121,1,1.058673894,1,9,2,3
1,4,2,322,f42887_e_166,1,1.158965534,1,10,1,4
1,4,2,323,f42887_e_108,1,0.99860167,1,9,2,3
1,4,2,324,f42887_e_088,1,1.218448382,1,10,1,4
1,4,2,325,f42887_e_160,1,1.008831937,1,9,2,3
1,4,2,326,f42887_e_027,1,0.958426418,1,9,1,3
1,4,2,327,f42887_e_118,1,0.61845765,1,9,2,3
1,4,2,328,f42887_e_032,1,0.478482787,1,9,2,3
1,4,2,329,f42887_e_052,1,1.808549098,1,10,2,4
1,4,2,330,f42887_e_162,1,0.678613849,1,9,2,3
1,4,2,331,f42887_e_111,1,0.728810054,1,9,1,3
1,4,2,332,f42887_e_009,1,0.828358364,1,9,2,3
1,4,2,333,f42887_e_131,1,1.158616574,1,9,2,3
1,4,2,334,f42887_e_229,1,2.218881939,1,10,1,4
1,4,2,335,f42887_e_081,1,2.119017636,1,10,2,4
1,4,2,336,f42887_e_265,1,1.698590753,1,10,2,4
1,4,2,337,f42887_e_016,1,1.188592037,1,9,1,3
1,4,2,338,f42887_e_051,1,1.388555151,1,10,2,4
1,4,2,339,f42887_e_164,1,2.648800425,0,10,1,3
1,4,2,340,f42887_e_143,1,1.448326933,1,9,2,3
1,4,2,341,f42887_e_136,1,1.498068743,1,10,2,4
1,4,2,342,f42887_e_190,1,1.108419125,1,9,2,3
1,4,2,343,f42887_e_243,1,1.188032519,1,9,1,3
1,4,2,344,f42887_e_156,1,0.917788374,1,9,2,3
1,4,2,345,f42887_e_015,1,1.288443278,1,9,2,3
1,4,2,346,f42887_e_059,1,2.207689387,1,10,2,4
1,4,2,347,f42887_e_099,1,1.198057204,0,10,1,3
1,4,2,348,f42887_e_116,1,3.808810352,1,10,1,4
1,4,2,349,f42887_e_025,1,1.277859074,1,10,2,4
1,4,2,350,f42887_e_012,1,1.487520305,1,10,2,4
1,4,2,351,f42887_e_053,1,1.647556048,1,10,1,4
1,4,2,352,f42887_e_194,1,3.608510097,1,10,1,4
1,4,2,353,f42887_e_152,1,1.307573284,1,9,2,3
1,4,2,354,f42887_e_208,1,1.727784632,1,10,1,4
1,4,2,355,f42887_e_189,1,2.148246349,1,10,1,4
1,4,2,356,f42887_e_250,1,1.517787503,1,10,2,4
1,4,2,357,f42887_e_085,1,1.107528995,1,10,2,4
1,4,2,358,f42887_e_249,1,1.567961315,1,9,1,3
1,4,2,359,f42887_e_034,1,1.337317041,1,10,2,4
1,4,2,360,f42887_e_282,1,1.107730845,1,9,2,3
1,4,2,361,f42887_e_291,1,1.447493409,1,10,1,4
1,4,2,362,f42887_e_142,1,0.917642196,1,9,1,3
1,4,2,363,f42887_e_140,1,1.107555121,1,9,1,3
1,4,2,364,f42887_e_213,1,2.517853127,1,10,1,4
1,4,2,365,f42887_e_203,1,1.157611057,1,9,1,3
1,4,2,366,f42887_e_060,1,1.457368806,1,10,2,4
1,4,2,367,f42887_e_245,1,1.977229545,1,9,2,3
1,4,2,368,f42887_e_182,1,2.277862495,1,10,2,4
1,4,2,369,f42887_e_079,1,1.467880233,0,10,1,3
1,4,2,370,f42887_e_003,1,0.587093497,1,9,2,3
1,4,2,371,f42887_e_247,1,0.726567936,1,9,1,3
1,4,2,372,f42887_e_161,1,1.567412992,1,10,2,4
1,4,2,373,f42887_e_065,1,0.876798259,1,9,2,3
1,4,2,374,f42887_e_021,1,2.078240567,1,10,2,4
1,4,2,375,f42887_e_235,1,0.745924672,1,9,1,3
1,4,2,376,f42887_e_177,1,1.877118606,1,10,2,4
1,4,2,377,f42887_e_135,1,0.976843574,1,9,1,3
1,4,2,378,f42887_e_170,1,0.676857539,1,9,1,3
1,4,2,379,f42887_e_122,1,2.077249979,1,10,1,4
1,4,2,380,f42887_e_207,1,1.577074721,1,9,2,3
1,4,2,381,f42887_e_087,1,1.096867659,0,9,1,4
1,4,2,382,f42887_e_138,1,1.036389558,1,9,1,3
1,4,2,383,f42887_e_281,1,1.817493001,1,9,1,3
1,4,2,384,f42887_e_241,1,2.587501551,1,10,2,4
1,4,2,385,f42887_e_174,1,1.076895731,1,10,1,4
1,4,2,386,f42887_e_014,1,1.446751012,1,9,1,3
1,4,2,387,f42887_e_134,1,1.826368481,1,10,1,4
1,4,2,388,f42887_e_232,1,1.50663165,1,10,2,4
1,4,2,389,f42887_e_186,1,1.376997465,1,10,1,4
1,4,2,390,f42887_e_297,1,1.336766541,1,10,1,4
1,4,2,391,f42887_e_123,1,0.895460185,1,9,2,3
1,4,2,392,f42887_e_187,1,0.857059594,1,9,2,3
1,4,2,393,f42887_e_196,1,1.997005844,1,10,2,4
1,4,2,394,f42887_e_261,1,0.866182953,1,9,2,3
1,4,2,395,f42887_e_255,1,1.166609699,1,10,2,4
1,4,2,396,f42887_e_100,1,1.146262374,1,10,1,4
1,4,2,397,f42887_e_272,1,0.726495158,1,9,1,3
1,4,2,398,f42887_e_119,1,1.196631504,1,9,1,3
1,4,2,399,f42887_e_242,1,2.146563127,1,10,1,4
1,4,2,400,f42887_e_040,1,0.726209333,1,9,2,3
1,4,2,401,f42887_e_089,1,1.435419435,1,10,2,4
1,4,2,402,f42887_e_117,1,0.866068188,1,9,1,3
1,4,2,403,f42887_e_216,1,1.206640639,1,10,1,4
1,4,2,404,f42887_e_075,1,1.626461972,1,9,1,3
1,4,2,405,f42887_e_031,1,1.134834693,1,9,1,3
1,4,2,406,f42887_e_294,1,1.580680025,1,9,2,3
1,4,2,407,f42887_e_150,1,2.556746369,1,10,2,4
1,4,2,408,f42887_e_163,1,1.086126703,1,9,1,3
1,4,2,409,f42887_e_288,1,1.816440521,1,9,1,3
1,4,2,410,f42887_e_091,1,0.996283352,1,9,1,3
1,4,2,411,f42887_e_037,1,1.276265114,1,10,1,4
1,4,2,412,f42887_e_292,1,1.095907862,1,9,2,3
1,4,2,413,f42887_e_080,1,0.985526223,1,10,1,4
1,4,2,414,f42887_e_133,1,1.26521283,1,10,2,4
1,4,2,415,f42887_e_285,1,1.315749598,1,10,1,4
1,4,2,416,f42887_e_058,1,1.646206547,1,10,2,4
1,4,2,417,f42887_e_175,1,1.575662395,1,9,1,3
1,4,2,418,f42887_e_048,1,1.606009835,1,10,2,4
1,4,2,419,f42887_e_114,1,1.585847565,1,9,1,3
1,4,2,420,f42887_e_046,1,1.345631757,1,10,1,4
1,4,2,421,f42887_e_173,1,1.275867946,1,9,2,3
1,4,2,422,f42887_e_151,1,1.805669707,1,10,1,4
1,4,2,423,f42887_e_124,1,0.834579939,1,9,1,3
1,4,2,424,f42887_e_211,1,1.005509969,1,9,1,3
1,4,2,425,f42887_e_178,1,1.315622081,1,10,2,4
1,4,2,426,f42887_e_193,1,0.835402267,1,9,1,3
1,4,2,427,f42887_e_069,1,2.185874686,1,10,1,4
1,4,2,428,f42887_e_253,1,0.855411517,1,9,1,3
1,4,2,429,f42887_e_159,1,1.935907576,1,9,2,3
1,4,2,430,f42887_e_284,1,1.07542369,1,9,2,3
1,4,2,431,f42887_e_129,1,3.105843286,1,9,1,3
1,4,2,432,f42887_e_234,1,1.325382403,1,9,1,3
1,4,2,433,f42887_e_005,1,1.435289741,1,10,1,4
1,4,2,434,f42887_e_296,1,0.725158409,1,9,2,3
1,4,2,435,f42887_e_200,1,1.515285064,1,10,2,4
1,4,2,436,f42887_e_206,1,1.544877666,1,10,2,4
1,4,2,437,f42887_e_233,1,1.105545332,1,10,1,4
1,4,2,438,f42887_e_226,1,2.07566846,1,10,1,4
1,4,2,439,f42887_e_217,1,1.565446124,1,10,1,4
1,4,2,440,f42887_e_130,1,1.275003631,1,10,1,4
1,4,2,441,f42887_e_011,1,0.864463965,1,9,2,3
1,4,2,442,f42887_e_063,1,1.074610382,1,10,1,4
1,4,2,443,f42887_e_043,1,0.684544624,1,9,1,3
1,4,2,444,f42887_e_270,1,0.834673866,1,9,1,3
1,4,2,445,f42887_e_148,1,0.915212224,1,9,2,3
1,4,2,446,f42887_e_019,1,1.264943801,1,10,2,4
1,4,2,447,f42887_e_218,1,0.845033828,1,9,2,3
1,4,2,448,f42887_e_181,1,3.225155454,1,10,2,4
1,4,2,449,f42887_e_210,1,1.314974856,1,10,1,4
1,4,2,450,f42887_e_269,1,1.074431547,1,10,1,4
1,4,2,451,f42887_e_047,1,1.684587544,1,10,2,4
1,4,2,452,f42887_e_036,1,1.254392253,1,10,2,4
1,4,2,453,f42887_e_128,1,2.764785338,1,10,2,4
1,4,2,454,f42887_e_105,1,1.304837894,1,10,1,4
1,4,2,455,f42887_e_238,1,1.67478679,1,10,1,4
1,4,2,456,f42887_e_145,1,1.124343483,1,9,2,3
1,4,2,457,f42887_e_067,1,1.57428086,1,10,2,4
1,4,2,458,f42887_e_018,1,1.194603676,1,9,2,3
1,4,2,459,f42887_e_230,1,1.664424963,1,10,1,4
1,4,2,460,f42887_e_061,1,1.174381069,1,10,1,4
1,4,2,461,f42887_e_212,1,2.374785204,1,10,2,4
1,4,2,462,f42887_e_204,1,1.014183288,1,9,2,3
1,4,2,463,f42887_e_050,1,0.924572578,1,9,2,3
1,4,2,464,f42887_e_096,1,0.834516492,1,9,2,3
1,4,2,465,f42887_e_185,1,1.573684641,1,10,1,4
1,4,2,466,f42887_e_077,1,1.123913658,1,10,1,4
1,4,2,467,f42887_e_092,1,0.764028635,1,10,1,4
1,4,2,468,f42887_e_062,1,0.764070311,1,9,1,3
1,4,2,469,f42887_e_274,1,0.624334619,1,9,1,3
1,4,2,470,f42887_e_198,1,0.844080873,1,9,1,3
1,4,2,471,f42887_e_020,1,0.623659091,1,9,1,3
1,4,2,472,f42887_e_280,1,0.743962158,1,9,1,3
1,4,2,473,f42887_e_237,1,0.654200916,1,9,1,3
1,4,2,474,f42887_e_039,1,0.79337429,1,9,2,3
1,4,2,475,f42887_e_132,1,0.703779753,1,9,2,3
1,4,2,476,f42887_e_000,1,2.114529045,0,10,2,3
1,4,2,477,f42887_e_139,1,0.773827833,1,9,1,3
1,4,2,478,f42887_e_179,1,1.093825917,1,10,1,4
1,4,2,479,f42887_e_144,1,0.992879276,1,9,1,3
1,4,2,480,f42887_e_158,1,1.634020918,1,10,2,4
1,4,2,481,f42887_e_228,1,1.923869369,1,10,2,4
1,4,2,482,f42887_e_110,1,0.773582441,1,10,1,4
1,4,2,483,f42887_e_252,1,0.85406637,1,10,1,4
1,4,2,484,f42887_e_197,1,0.693366608,1,9,2,3
1,4,2,485,f42887_e_042,1,0.85351245,1,9,2,3
1,4,2,486,f42887_e_299,1,0.613365065,1,9,2,3
1,4,2,487,f42887_e_109,1,0.673417696,1,9,2,3
1,4,2,488,f42887_e_295,1,0.773240012,1,9,2,3
1,4,2,489,f42887_e_149,1,1.803623529,1,9,2,3
1,4,2,490,f42887_e_068,1,1.263647173,1,10,1,4
1,4,2,491,f42887_e_146,1,0.792711203,1,9,1,3
1,4,2,492,f42887_e_035,1,1.833654354,1,10,1,4
1,4,2,493,f42887_e_008,1,1.063105258,1,9,1,3
1,4,2,494,f42887_e_222,1,1.713290328,1,9,1,3
1,4,2,495,f42887_e_169,1,1.433333447,1,10,2,4
1,4,2,496,f42887_e_240,1,1.602371874,1,9,1,3
1,4,2,497,f42887_e_023,1,2.314289997,1,10,1,4
1,4,2,498,f42887_e_115,1,1.413749979,1,10,2,4
1,4,2,499,f42887_e_007,1,0.753191885,1,9,1,3
1,4,2,500,f42887_e_102,1,0.682959372,1,9,2,3
1,4,2,501,f42887_e_236,1,0.652754067,1,9,1,3
1,4,2,502,f42887_e_155,1,0.902040673,1,10,1,4
1,4,2,503,f42887_e_078,1,1.852520929,1,9,2,3
1,4,2,504,f42887_e_191,1,0.833207423,1,10,1,4
1,4,2,505,f42887_e_195,1,1.323050712,1,10,2,4
1,4,2,506,f42887_e_045,1,1.64960378,1,9,2,3
1,4,2,507,f42887_e_251,1,1.393042498,1,9,2,3
1,4,2,508,f42887_e_263,1,0.702988527,1,9,2,3
1,4,2,509,f42887_e_244,1,1.793012889,1,9,1,3
1,4,2,510,f42887_e_095,1,0.872751,1,10,1,4
1,4,2,511,f42887_e_289,1,1.353116992,1,10,2,4
1,4,2,512,f42887_e_038,1,0.992049484,0,9,1,4
1,4,2,513,f42887_e_254,1,1.813099271,1,10,2,4
1,4,2,514,f42887_e_120,1,2.152731518,1,10,2,4
1,4,2,515,f42887_e_214,1,0.681555755,1,9,1,3
1,4,2,516,f42887_e_013,1,0.792035053,1,9,2,3
1,4,2,517,f42887_e_264,1,0.872187438,1,9,1,3
1,4,2,518,f42887_e_022,1,2.253251134,1,10,2,4
1,4,2,519,f42887_e_267,1,1.262128479,1,10,1,4
1,4,2,520,f42887_e_205,1,6.074093161,1,10,2,4
1,4,2,521,f42887_e_246,1,1.192445532,1,10,1,4
1,4,2,522,f42887_e_293,1,0.77160251,1,9,2,3
1,4,2,523,f42887_e_165,1,1.172509683,1,10,1,4
1,4,2,524,f42887_e_137,1,1.362614194,1,10,2,4
1,4,2,525,f42887_e_002,1,0.912447598,1,10,1,4
1,4,2,526,f42887_e_202,1,0.762207944,1,10,1,4
1,4,2,527,f42887_e_259,1,1.221667092,1,10,1,4
1,4,2,528,f42887_e_082,1,0.96188119,1,9,1,3
1,4,2,529,f42887_e_107,1,0.942185756,1,10,1,4
1,4,2,530,f42887_e_256,1,0.712278591,1,9,1,3
1,4,2,531,f42887_e_287,1,1.412319925,1,10,1,4
1,4,2,532,f42887_e_004,1,0.671351924,1,9,1,3
1,4,2,533,f42887_e_184,1,1.621729855,1,10,2,4
1,4,2,534,f42887_e_223,1,0.772043842,1,9,1,3
1,4,2,535,f42887_e_093,1,1.891279811,1,9,1,3
1,4,2,536,f42887_e_273,1,1.432286877,1,10,1,4
1,4,2,537,f42887_e_153,1,1.151910124,1,9,2,3
1,4,2,538,f42887_e_224,1,1.262266259,1,9,1,3
1,4,2,539,f42887_e_041,1,3.222911469,1,10,2,4
1,4,2,540,f42887_e_101,1,1.421795977,1,10,2,4
1,4,2,541,f42887_e_090,1,1.041917877,1,10,1,4
1,4,2,542,f42887_e_192,1,0.73216841,1,9,2,3
1,4,2,543,f42887_e_220,1,0.701598594,1,9,1,3
1,4,2,544,f42887_e_113,1,1.682059912,1,10,2,4
1,4,2,545,f42887_e_097,1,1.271550414,1,10,2,4
1,4,2,546,f42887_e_147,1,0.771697059,1,9,2,3
1,4,2,547,f42887_e_209,1,1.461606718,1,10,1,4
1,4,2,548,f42887_e_298,1,1.651929873,1,10,2,4
1,4,2,549,f42887_e_277,1,3.621472956,1,10,2,4
1,4,2,550,f42887_e_168,1,0.671134834,1,9,2,3
1,4,2,551,f42887_e_112,1,0.691428664,1,9,2,3
1,4,2,552,f42887_e_070,1,1.741220236,1,10,2,4
1,4,2,553,f42887_e_180,1,0.620087377,1,9,1,3
1,4,2,554,f42887_e_029,1,0.860589942,1,9,1,3
1,4,2,555,f42887_e_266,1,0.731295698,1,9,2,3
1,4,2,556,f42887_e_290,1,1.211310241,1,9,1,3
1,4,2,557,f42887_e_072,1,0.660663529,1,9,1,3
1,4,2,558,f42887_e_176,1,0.601286116,1,9,1,3
1,4,2,559,f42887_e_258,1,1.241428151,1,9,2,3
1,4,2,560,f42887_e_219,1,1.051261125,1,9,1,3
1,4,2,561,f42887_e_126,1,1.901456273,1,10,2,4
1,4,2,562,f42887_e_201,1,0.670577492,1,9,2,3
1,4,2,563,f42887_e_033,1,1.651377819,1,10,2,4
1,4,2,564,f42887_e_084,1,1.161144827,1,10,1,4
1,4,2,565,f42887_e_141,1,0.710605944,1,9,1,3
1,4,2,566,f42887_e_171,1,0.790968577,1,9,2,3
1,4,2,567,f42887_e_064,1,1.140005032,1,10,1,4
1,4,2,568,f42887_e_071,1,0.691004437,1,9,2,3
1,4,2,569,f42887_e_268,1,0.590919001,1,9,2,3
1,4,2,570,f42887_e_094,1,0.580608491,1,9,2,3
1,4,2,571,f42887_e_125,1,1.560774033,1,10,1,4
1,4,2,572,f42887_e_086,1,1.190941145,1,10,1,4
1,4,2,573,f42887_e_225,1,1.21074077,1,10,1,4
1,4,2,574,f42887_e_260,1,2.081315277,1,10,2,4
1,4,2,575,f42887_e_276,1,2.191292283,1,10,2,4
1,4,2,576,f42887_e_221,1,1.360778574,1,10,2,4
1,4,2,577,f42887_e_183,1,0.66041285,1,9,1,3
1,4,2,578,f42887_e_106,1,0.910337661,1,9,1,3
1,4,2,579,f42887_e_074,1,1.61028258,1,9,2,3
1,4,2,580,f42887_e_188,1,1.470683114,1,9,2,3
1,4,2,581,f42887_e_044,1,1.070634035,1,10,1,4
1,4,2,582,f42887_e_227,1,0.900010979,1,10,1,4
1,4,2,583,f42887_e_172,1,0.769422906,1,9,2,3
1,4,2,584,f42887_e_066,1,0.820154992,1,9,1,3
1,4,2,585,f42887_e_275,1,1.009592372,1,10,1,4
1,4,2,586,f42887_e_073,1,1.260113403,1,10,2,4
1,4,2,587,f42887_e_199,1,1.841059969,1,10,2,4
1,4,2,588,f42887_e_001,1,0.940159172,1,9,1,3
1,4,2,589,f42887_e_278,1,0.960112439,1,9,2,3
1,4,2,590,f42887_e_057,1,1.391600003,1,9,2,3
1,4,2,591,f42887_e_286,1,1.100352288,1,10,1,4
1,4,2,592,f42887_e_098,1,1.099267774,1,10,1,4
1,4,2,593,f42887_e_028,1,1.230007312,1,10,1,4
1,4,2,594,f42887_e_279,1,1.089783635,1,9,2,3
1,4,2,595,f42887_e_076,1,2.640728301,1,10,2,4
1,4,2,596,f42887_e_026,1,1.779389431,1,9,2,3
1,4,2,597,f42887_e_215,1,1.290310622,1,9,1,3
1,4,2,598,f42887_e_103,1,1.169515837,1,10,1,4
1,4,2,599,f42887_e_030,1,2.139252683,1,10,2,4
1,4,2,600,f42887_e_271,1,0.688616141,1,9,1,3
10,4,1,1,f42887_e_155,1,1.468214854,1,10,2,4
10,4,1,2,f42887_e_211,1,3.538485726,1,10,1,4
10,4,1,3,f42887_e_224,1,1.548428362,1,10,1,4
10,4,1,4,f42887_e_072,1,1.228466642,1,10,2,4
10,4,1,5,f42887_e_011,1,0.993329589,1,9,2,3
10,4,1,6,f42887_e_062,1,1.062498834,1,10,2,4
10,4,1,7,f42887_e_237,1,0.945635541,1,10,2,4
10,4,1,8,f42887_e_105,1,0.908364342,1,9,2,3
10,4,1,9,f42887_e_066,1,0.890618255,1,10,2,4
10,4,1,10,f42887_e_054,1,1.01674834,1,9,1,3
10,4,1,11,f42887_e_171,1,1.049942399,1,9,1,3
10,4,1,12,f42887_e_268,1,1.195138223,1,10,1,4
10,4,1,13,f42887_e_117,1,1.273112398,1,10,2,4
10,4,1,14,f42887_e_028,1,1.081488683,1,10,2,4
10,4,1,15,f42887_e_092,1,1.157276711,1,10,1,4
10,4,1,16,f42887_e_102,1,1.153936062,1,9,2,3
10,4,1,17,f42887_e_089,1,2.029884202,1,9,1,3
10,4,1,18,f42887_e_186,1,1.091872032,1,9,2,3
10,4,1,19,f42887_e_103,1,1.192701705,1,9,1,3
10,4,1,20,f42887_e_185,1,1.113349718,1,9,2,3
10,4,1,21,f42887_e_078,1,1.21681496,1,10,1,4
10,4,1,22,f42887_e_037,1,3.447304777,1,9,1,3
10,4,1,23,f42887_e_001,1,1.234775339,1,9,1,3
10,4,1,24,f42887_e_002,1,0.804672056,0,9,2,4
10,4,1,25,f42887_e_009,1,1.028728768,1,9,2,3
10,4,1,26,f42887_e_136,1,0.918167019,0,10,1,3
10,4,1,27,f42887_e_153,1,0.977040623,1,9,2,3
10,4,1,28,f42887_e_250,1,1.278994689,1,9,1,3
10,4,1,29,f42887_e_057,1,0.775084255,1,9,2,3
10,4,1,30,f42887_e_082,1,0.818961174,1,9,2,3
10,4,1,31,f42887_e_266,1,0.883157857,1,10,2,4
10,4,1,32,f42887_e_104,1,0.908551264,1,10,1,4
10,4,1,33,f42887_e_130,1,0.950339383,1,9,2,3
10,4,1,34,f42887_e_225,1,1.305117745,1,9,1,3
10,4,1,35,f42887_e_297,1,0.769263546,1,9,2,3
10,4,1,36,f42887_e_230,1,0.93052689,1,9,1,3
10,4,1,37,f42887_e_040,1,0.870859568,1,9,1,3
10,4,1,38,f42887_e_236,1,0.834081333,1,10,2,4
10,4,1,39,f42887_e_006,1,0.77219054,1,9,1,3
10,4,1,40,f42887_e_256,1,0.956186529,1,10,2,4
10,4,1,41,f42887_e_070,1,0.712682459,1,10,2,4
10,4,1,42,f42887_e_055,1,0.721052586,0,10,1,3
10,4,1,43,f42887_e_249,1,0.918483325,1,9,1,3
10,4,1,44,f42887_e_147,1,0.716333815,1,10,2,4
10,4,1,45,f42887_e_231,1,0.840300456,1,9,2,3
10,4,1,46,f42887_e_042,1,0.728250173,1,10,2,4
10,4,1,47,f42887_e_174,1,0.891868549,1,9,1,3
10,4,1,48,f42887_e_014,1,0.640761634,1,10,1,4
10,4,1,49,f42887_e_175,1,0.752551284,1,9,1,3
10,4,1,50,f42887_e_286,1,0.815210603,1,9,2,3
10,4,1,51,f42887_e_129,1,0.666182722,1,10,2,4
10,4,1,52,f42887_e_194,1,0.909258209,1,9,2,3
10,4,1,53,f42887_e_151,1,0.905802483,1,10,1,4
10,4,1,54,f42887_e_044,1,1.431060287,1,9,2,3
10,4,1,55,f42887_e_232,1,0.712334118,1,10,2,4
10,4,1,56,f42887_e_145,1,0.701778154,1,10,2,4
10,4,1,57,f42887_e_233,1,0.787738971,1,9,1,3
10,4,1,58,f42887_e_008,1,0.642679996,1,10,1,4
10,4,1,59,f42887_e_090,1,1.142683728,1,9,2,3
10,4,1,60,f42887_e_204,1,0.623534637,1,10,1,4
10,4,1,61,f42887_e_252,1,0.653419461,1,10,1,4
10,4,1,62,f42887_e_010,1,0.716803764,0,9,2,4
10,4,1,63,f42887_e_144,1,0.823722554,1,9,2,3
10,4,1,64,f42887_e_149,1,0.794535345,1,9,1,3
10,4,1,65,f42887_e_112,1,0.770271867,1,9,2,3
10,4,1,66,f42887_e_260,1,0.819629552,1,9,1,3
10,4,1,67,f42887_e_094,1,0.770719734,1,9,1,3
10,4,1,68,f42887_e_080,1,0.736909858,1,9,1,3
10,4,1,69,f42887_e_119,1,0.713017115,1,9,2,3
10,4,1,70,f42887_e_210,1,0.729170166,1,10,1,4
10,4,1,71,f42887_e_131,1,0.606068466,1,10,2,4
10,4,1,72,f42887_e_288,1,0.65511109,1,10,1,4
10,4,1,73,f42887_e_068,1,0.747396465,1,10,1,4
10,4,1,74,f42887_e_152,1,0.661983663,1,10,2,4
10,4,1,75,f42887_e_120,1,0.915886944,1,9,1,3
10,4,1,76,f42887_e_197,1,0.84694101,1,10,1,4
10,4,1,77,f42887_e_030,1,0.801079483,1,10,2,4
10,4,1,78,f42887_e_202,1,0.673459308,1,9,1,3
10,4,1,79,f42887_e_003,1,0.70509952,1,9,1,3
10,4,1,80,f42887_e_132,1,0.763203042,1,9,2,3
10,4,1,81,f42887_e_111,1,0.623366065,1,10,2,4
10,4,1,82,f42887_e_164,1,0.689182221,1,10,2,4
10,4,1,83,f42887_e_021,1,0.675854461,1,9,1,3
10,4,1,84,f42887_e_219,1,0.91843294,1,9,1,3
10,4,1,85,f42887_e_190,1,0.828212727,1,9,1,3
10,4,1,86,f42887_e_081,1,0.8597926,1,9,2,3
10,4,1,87,f42887_e_069,1,0.855085026,1,10,1,4
10,4,1,88,f42887_e_173,1,0.601864742,1,9,1,3
10,4,1,89,f42887_e_095,1,0.72974866,1,9,2,3
10,4,1,90,f42887_e_052,1,0.810329169,1,10,1,4
10,4,1,91,f42887_e_192,1,0.639835422,1,9,1,3
10,4,1,92,f42887_e_122,1,0.500895733,1,10,2,4
10,4,1,93,f42887_e_156,1,0.662280063,1,9,1,3
10,4,1,94,f42887_e_045,1,0.777164968,1,9,1,3
10,4,1,95,f42887_e_180,1,0.735469843,1,9,2,3
10,4,1,96,f42887_e_184,1,0.639789391,1,10,1,4
10,4,1,97,f42887_e_222,1,0.658667585,1,9,1,3
10,4,1,98,f42887_e_208,1,0.61719857,0,9,2,4
10,4,1,99,f42887_e_013,1,0.784248412,1,10,1,4
10,4,1,100,f42887_e_039,1,0.583593345,1,10,2,4
10,4,1,101,f42887_e_265,1,0.673956627,1,9,2,3
10,4,1,102,f42887_e_248,1,1.525282374,1,10,1,4
10,4,1,103,f42887_e_091,1,0.936750368,1,10,2,4
10,4,1,104,f42887_e_123,1,0.671057935,1,10,1,4
10,4,1,105,f42887_e_273,1,0.613130139,1,10,1,4
10,4,1,106,f42887_e_264,1,0.52916917,1,10,1,4
10,4,1,107,f42887_e_071,1,0.690898109,1,9,1,3
10,4,1,108,f42887_e_106,1,0.66908639,1,10,2,4
10,4,1,109,f42887_e_191,1,0.625488143,1,10,1,4
10,4,1,110,f42887_e_012,1,0.714876072,1,9,2,3
10,4,1,111,f42887_e_245,1,0.691817479,1,10,2,4
10,4,1,112,f42887_e_000,1,0.868824574,1,10,2,4
10,4,1,113,f42887_e_005,1,1.132788056,1,9,2,3
10,4,1,114,f42887_e_063,1,0.813989545,1,10,1,4
10,4,1,115,f42887_e_199,1,0.936357552,1,10,2,4
10,4,1,116,f42887_e_285,1,0.721469661,1,10,2,4
10,4,1,117,f42887_e_085,1,0.758504176,1,10,1,4
10,4,1,118,f42887_e_114,1,0.821157897,1,10,1,4
10,4,1,119,f42887_e_239,1,0.87470531,1,10,2,4
10,4,1,120,f42887_e_025,1,0.57713878,0,9,2,4
10,4,1,121,f42887_e_229,1,0.631577261,1,9,2,3
10,4,1,122,f42887_e_127,1,0.683407853,1,9,1,3
10,4,1,123,f42887_e_017,1,0.650824012,1,9,1,3
10,4,1,124,f42887_e_168,1,0.642774856,1,9,1,3
10,4,1,125,f42887_e_290,1,0.717818617,1,10,2,4
10,4,1,126,f42887_e_187,1,0.669885707,1,10,1,4
10,4,1,127,f42887_e_160,1,0.581661298,1,10,1,4
10,4,1,128,f42887_e_176,1,0.687970493,1,9,2,3
10,4,1,129,f42887_e_292,1,0.720921958,1,10,1,4
10,4,1,130,f42887_e_241,1,0.708329446,1,9,2,3
10,4,1,131,f42887_e_213,1,0.552973585,1,10,2,4
10,4,1,132,f42887_e_007,1,0.789026587,1,9,1,3
10,4,1,133,f42887_e_205,1,0.79845822,1,9,1,3
10,4,1,134,f42887_e_050,1,0.648559798,1,10,2,4
10,4,1,135,f42887_e_088,1,0.553800582,1,9,2,3
10,4,1,136,f42887_e_209,1,0.815703256,1,9,1,3
10,4,1,137,f42887_e_060,1,0.576228429,1,10,1,4
10,4,1,138,f42887_e_165,1,0.768844915,1,10,1,4
10,4,1,139,f42887_e_141,1,0.724809377,1,10,2,4
10,4,1,140,f42887_e_053,1,0.729036739,1,10,2,4
10,4,1,141,f42887_e_177,1,0.781512694,1,9,1,3
10,4,1,142,f42887_e_294,1,0.747468932,1,9,2,3
10,4,1,143,f42887_e_146,1,0.880102723,1,10,2,4
10,4,1,144,f42887_e_113,1,0.688014969,1,10,2,4
10,4,1,145,f42887_e_023,1,0.573338135,1,10,2,4
10,4,1,146,f42887_e_076,1,0.670540401,1,9,1,3
10,4,1,147,f42887_e_128,1,0.559774935,1,9,2,3
10,4,1,148,f42887_e_161,1,0.879194549,1,10,1,4
10,4,1,149,f42887_e_154,1,0.723859216,1,9,2,3
10,4,1,150,f42887_e_041,1,0.749786952,1,9,1,3
10,4,1,151,f42887_e_098,1,0.949554684,1,10,2,4
10,4,1,152,f42887_e_298,1,0.763521835,1,9,1,3
10,4,1,153,f42887_e_254,1,0.837830037,1,9,1,3
10,4,1,154,f42887_e_200,1,0.843200081,1,9,1,3
10,4,1,155,f42887_e_238,1,0.737581658,1,10,1,4
10,4,1,156,f42887_e_244,1,0.754032664,1,9,1,3
10,4,1,157,f42887_e_281,1,0.842257073,1,10,2,4
10,4,1,158,f42887_e_167,1,0.769970802,1,10,2,4
10,4,1,159,f42887_e_234,1,0.745028682,1,10,2,4
10,4,1,160,f42887_e_278,1,0.847489957,0,10,1,3
10,4,1,161,f42887_e_027,1,0.597132286,1,10,2,4
10,4,1,162,f42887_e_226,1,0.551889997,1,10,2,4
10,4,1,163,f42887_e_203,1,0.7204094,1,9,2,3
10,4,1,164,f42887_e_159,1,0.591891315,1,10,2,4
10,4,1,165,f42887_e_228,1,0.557560795,1,10,2,4
10,4,1,166,f42887_e_110,1,0.666416608,1,9,2,3
10,4,1,167,f42887_e_099,1,0.753562094,1,9,2,3
10,4,1,168,f42887_e_193,1,0.606894531,1,10,2,4
10,4,1,169,f42887_e_181,1,0.56330717,1,10,2,4
10,4,1,170,f42887_e_148,1,0.766696711,1,10,1,4
10,4,1,171,f42887_e_215,1,0.827713231,1,9,1,3
10,4,1,172,f42887_e_138,1,0.681851517,1,9,2,3
10,4,1,173,f42887_e_221,1,0.744393894,1,9,1,3
10,4,1,174,f42887_e_022,1,0.637670112,1,9,2,3
10,4,1,175,f42887_e_048,1,0.698803574,1,9,1,3
10,4,1,176,f42887_e_124,1,0.659890198,1,10,1,4
10,4,1,177,f42887_e_198,1,0.768673544,1,10,2,4
10,4,1,178,f42887_e_125,1,0.592096276,1,10,2,4
10,4,1,179,f42887_e_289,1,0.699191725,1,9,1,3
10,4,1,180,f42887_e_036,1,0.602260979,1,9,2,3
10,4,1,181,f42887_e_046,1,0.610433609,1,10,1,4
10,4,1,182,f42887_e_142,1,0.80726315,1,9,1,3
10,4,1,183,f42887_e_126,1,1.496503531,1,10,1,4
10,4,1,184,f42887_e_143,1,0.692088376,1,9,2,3
10,4,1,185,f42887_e_272,1,2.031391708,1,9,1,3
10,4,1,186,f42887_e_150,1,0.842307147,1,9,1,3
10,4,1,187,f42887_e_140,1,0.696947417,1,9,1,3
10,4,1,188,f42887_e_206,1,0.576246157,1,10,1,4
10,4,1,189,f42887_e_284,1,0.597092476,1,10,1,4
10,4,1,190,f42887_e_280,1,0.748719226,1,10,2,4
10,4,1,191,f42887_e_291,1,0.81618098,1,9,1,3
10,4,1,192,f42887_e_004,1,1.010779897,1,9,1,3
10,4,1,193,f42887_e_137,1,1.051471366,1,9,2,3
10,4,1,194,f42887_e_274,1,0.989743236,1,9,1,3
10,4,1,195,f42887_e_275,1,0.658771776,1,9,2,3
10,4,1,196,f42887_e_065,1,0.625860432,1,10,1,4
10,4,1,197,f42887_e_246,1,0.865990886,1,9,2,3
10,4,1,198,f42887_e_059,1,0.60425865,1,10,1,4
10,4,1,199,f42887_e_220,1,1.292821322,1,9,1,3
10,4,1,200,f42887_e_262,1,1.292506883,1,9,1,3
10,4,1,201,f42887_e_074,1,0.79063082,1,10,2,4
10,4,1,202,f42887_e_162,1,0.651642301,1,10,2,4
10,4,1,203,f42887_e_056,1,1.296151085,1,9,2,3
10,4,1,204,f42887_e_121,1,0.795217408,1,10,1,4
10,4,1,205,f42887_e_064,1,0.71603617,1,9,1,3
10,4,1,206,f42887_e_077,1,0.737161783,1,9,1,3
10,4,1,207,f42887_e_217,1,0.648330889,1,9,2,3
10,4,1,208,f42887_e_196,1,0.71107014,1,9,1,3
10,4,1,209,f42887_e_189,1,0.786832663,1,10,1,4
10,4,1,210,f42887_e_293,1,0.707976751,1,9,1,3
10,4,1,211,f42887_e_170,1,0.628049069,0,10,1,3
10,4,1,212,f42887_e_018,1,0.915943238,1,9,1,3
10,4,1,213,f42887_e_163,1,0.728946854,1,9,2,3
10,4,1,214,f42887_e_101,1,0.605379561,1,10,2,4
10,4,1,215,f42887_e_097,1,0.807911624,1,9,2,3
10,4,1,216,f42887_e_277,1,0.753812152,1,10,1,4
10,4,1,217,f42887_e_133,1,0.656453756,1,10,1,4
10,4,1,218,f42887_e_033,1,0.565732181,1,10,2,4
10,4,1,219,f42887_e_157,1,0.547093782,1,10,2,4
10,4,1,220,f42887_e_035,1,0.774598444,1,9,1,3
10,4,1,221,f42887_e_084,1,0.596732005,0,10,2,3
10,4,1,222,f42887_e_051,1,0.980637861,1,9,1,3
10,4,1,223,f42887_e_169,1,0.853706282,1,9,2,3
10,4,1,224,f42887_e_029,1,0.884505499,1,9,2,3
10,4,1,225,f42887_e_067,1,1.024681797,1,10,2,4
10,4,1,226,f42887_e_179,1,0.828073701,1,9,1,3
10,4,1,227,f42887_e_182,1,0.839645451,1,10,1,4
10,4,1,228,f42887_e_259,1,0.63477453,1,10,2,4
10,4,1,229,f42887_e_115,1,0.624419173,1,9,1,3
10,4,1,230,f42887_e_263,1,0.783926819,1,9,1,3
10,4,1,231,f42887_e_032,1,0.806997851,1,9,2,3
10,4,1,232,f42887_e_212,1,0.743808868,1,9,2,3
10,4,1,233,f42887_e_108,1,0.723084158,1,9,2,3
10,4,1,234,f42887_e_093,1,1.006646774,1,9,2,3
10,4,1,235,f42887_e_075,1,0.654435247,1,9,2,3
10,4,1,236,f42887_e_034,1,1.027515486,1,9,1,3
10,4,1,237,f42887_e_243,1,0.644117523,1,10,2,4
10,4,1,238,f42887_e_283,1,0.734816393,1,10,2,4
10,4,1,239,f42887_e_242,1,0.734822303,1,10,2,4
10,4,1,240,f42887_e_061,1,0.692961405,1,9,1,3
10,4,1,241,f42887_e_058,1,0.73351136,1,10,1,4
10,4,1,242,f42887_e_100,1,1.433150952,1,9,2,3
10,4,1,243,f42887_e_207,1,0.773030911,1,10,1,4
10,4,1,244,f42887_e_282,1,0.760172167,1,9,1,3
10,4,1,245,f42887_e_107,1,0.585629893,1,10,2,4
10,4,1,246,f42887_e_258,1,0.647875558,1,9,1,3
10,4,1,247,f42887_e_299,1,0.994128284,1,9,2,3
10,4,1,248,f42887_e_083,1,0.747191504,1,10,1,4
10,4,1,249,f42887_e_271,1,0.710736417,1,10,1,4
10,4,1,250,f42887_e_216,1,0.613910795,1,9,1,3
10,4,1,251,f42887_e_251,1,0.710890682,0,9,2,4
10,4,1,252,f42887_e_295,1,0.693889173,0,9,2,4
10,4,1,253,f42887_e_043,1,0.670129545,1,10,1,4
10,4,1,254,f42887_e_038,1,0.795325331,1,9,1,3
10,4,1,255,f42887_e_247,1,0.624457117,1,10,1,4
10,4,1,256,f42887_e_279,1,0.766215255,1,10,1,4
10,4,1,257,f42887_e_087,1,0.832339008,1,9,1,3
10,4,1,258,f42887_e_020,1,0.7030412,1,9,2,3
10,4,1,259,f42887_e_253,1,0.874148898,1,10,1,4
10,4,1,260,f42887_e_158,1,0.822513937,1,9,1,3
10,4,1,261,f42887_e_240,1,0.612359435,1,10,2,4
10,4,1,262,f42887_e_016,1,0.777307103,1,9,2,3
10,4,1,263,f42887_e_267,1,0.533931484,1,10,2,4
10,4,1,264,f42887_e_214,1,0.653534226,1,9,2,3
10,4,1,265,f42887_e_166,1,0.614464408,1,10,2,4
10,4,1,266,f42887_e_047,1,0.657408893,1,9,2,3
10,4,1,267,f42887_e_019,1,0.592621586,1,10,2,4
10,4,1,268,f42887_e_218,1,1.050705327,1,10,1,4
10,4,1,269,f42887_e_135,1,0.747465822,1,9,2,3
10,4,1,270,f42887_e_139,1,0.924264224,1,10,1,4
10,4,1,271,f42887_e_269,1,0.738501961,1,9,2,3
10,4,1,272,f42887_e_201,1,0.848526581,0,10,1,3
10,4,1,273,f42887_e_227,1,0.913911977,1,10,1,4
10,4,1,274,f42887_e_073,1,0.757745291,1,9,2,3
10,4,1,275,f42887_e_015,1,0.564874703,1,10,1,4
10,4,1,276,f42887_e_172,1,0.771475198,1,9,2,3
10,4,1,277,f42887_e_287,1,0.890918077,1,9,2,3
10,4,1,278,f42887_e_255,1,0.629733233,1,10,1,4
10,4,1,279,f42887_e_026,1,0.645565624,1,9,2,3
10,4,1,280,f42887_e_195,1,0.667498952,1,10,2,4
10,4,1,281,f42887_e_109,1,0.839319193,1,10,2,4
10,4,1,282,f42887_e_178,1,0.568182073,1,10,2,4
10,4,1,283,f42887_e_086,1,0.829613864,1,9,2,3
10,4,1,284,f42887_e_188,1,0.91628287,0,9,1,4
10,4,1,285,f42887_e_257,1,1.115006202,1,9,2,3
10,4,1,286,f42887_e_276,1,0.727954084,1,10,1,4
10,4,1,287,f42887_e_134,1,0.678551301,0,10,2,3
10,4,1,288,f42887_e_261,1,0.793600735,1,10,2,4
10,4,1,289,f42887_e_223,1,0.668533088,1,9,2,3
10,4,1,290,f42887_e_049,1,0.827198807,1,9,1,3
10,4,1,291,f42887_e_096,1,0.593188262,1,10,2,4
10,4,1,292,f42887_e_031,1,0.703401981,1,10,1,4
10,4,1,293,f42887_e_118,1,0.744467916,1,10,1,4
10,4,1,294,f42887_e_079,1,0.626213127,1,9,1,3
10,4,1,295,f42887_e_296,1,0.775506929,1,9,1,3
10,4,1,296,f42887_e_024,1,0.608124609,1,10,1,4
10,4,1,297,f42887_e_235,1,0.810502096,1,9,1,3
10,4,1,298,f42887_e_183,1,0.875854834,1,10,1,4
10,4,1,299,f42887_e_270,1,0.897917234,1,10,1,4
10,4,1,300,f42887_e_116,1,0.732754653,1,10,2,4
10,4,2,301,f42887_e_234,1,0.72276723,1,10,2,4
10,4,2,302,f42887_e_173,1,0.752708659,1,10,2,4
10,4,2,303,f42887_e_119,1,0.842666062,0,9,2,4
10,4,2,304,f42887_e_273,1,1.265384213,1,9,1,3
10,4,2,305,f42887_e_212,1,1.482715153,1,9,1,3
10,4,2,306,f42887_e_024,1,1.012743978,1,9,2,3
10,4,2,307,f42887_e_078,1,0.82275,1,9,2,3
10,4,2,308,f42887_e_030,1,0.642482188,1,9,2,3
10,4,2,309,f42887_e_167,1,0.882900645,1,10,2,4
10,4,2,310,f42887_e_124,1,0.812450315,1,9,2,3
10,4,2,311,f42887_e_249,1,0.812418902,1,9,2,3
10,4,2,312,f42887_e_232,1,1.462256364,1,9,1,3
10,4,2,313,f42887_e_008,1,1.132271143,1,10,2,4
10,4,2,314,f42887_e_035,1,1.122314512,1,10,1,4
10,4,2,315,f42887_e_107,1,0.702015772,1,9,1,3
10,4,2,316,f42887_e_129,1,0.61275474,1,9,1,3
10,4,2,317,f42887_e_110,1,0.692264413,1,9,1,3
10,4,2,318,f42887_e_017,1,0.602406225,1,9,2,3
10,4,2,319,f42887_e_144,1,0.745528489,1,9,1,3
10,4,2,320,f42887_e_075,1,0.911421964,1,10,2,4
10,4,2,321,f42887_e_227,1,0.701900385,1,9,1,3
10,4,2,322,f42887_e_115,1,1.062319376,1,10,2,4
10,4,2,323,f42887_e_178,1,0.702174703,1,9,1,3
10,4,2,324,f42887_e_145,1,0.631523144,1,10,2,4
10,4,2,325,f42887_e_254,1,0.631872729,1,9,2,3
10,4,2,326,f42887_e_004,1,0.551801045,1,10,2,4
10,4,2,327,f42887_e_159,1,0.822075712,1,9,1,3
10,4,2,328,f42887_e_132,1,0.872156203,1,10,1,4
10,4,2,329,f42887_e_116,1,0.891702465,1,9,1,3
10,4,2,330,f42887_e_095,1,0.691507394,1,9,1,3
10,4,2,331,f42887_e_204,1,0.761606273,1,10,1,4
10,4,2,332,f42887_e_217,1,0.702117786,1,10,2,4
10,4,2,333,f42887_e_228,1,0.661544505,1,10,2,4
10,4,2,334,f42887_e_023,1,0.671396634,1,9,1,3
10,4,2,335,f42887_e_072,1,0.761894276,1,10,1,4
10,4,2,336,f42887_e_189,1,0.729897327,1,9,2,3
10,4,2,337,f42887_e_020,1,0.78160631,1,9,2,3
10,4,2,338,f42887_e_057,1,0.784297864,1,9,1,3
10,4,2,339,f42887_e_028,1,0.741746194,1,10,2,4
10,4,2,340,f42887_e_267,1,0.92149305,1,10,1,4
10,4,2,341,f42887_e_039,1,0.871390165,1,10,2,4
10,4,2,342,f42887_e_175,1,0.68162012,1,9,2,3
10,4,2,343,f42887_e_240,1,1.271539578,1,10,1,4
10,4,2,344,f42887_e_265,1,0.701084583,1,9,1,3
10,4,2,345,f42887_e_127,1,0.971267188,1,9,2,3
10,4,2,346,f42887_e_000,1,0.7716164,1,10,2,4
10,4,2,347,f42887_e_297,1,1.111396522,1,10,1,4
10,4,2,348,f42887_e_207,1,0.631105446,1,9,1,3
10,4,2,349,f42887_e_071,1,0.611134023,1,9,1,3
10,4,2,350,f42887_e_081,1,0.970679053,1,10,1,4
10,4,2,351,f42887_e_147,1,0.850944749,1,9,1,3
10,4,2,352,f42887_e_256,1,0.901261926,1,9,1,3
10,4,2,353,f42887_e_181,1,0.571038466,0,10,2,3
10,4,2,354,f42887_e_278,1,0.651066917,1,9,2,3
10,4,2,355,f42887_e_158,1,0.911058694,1,10,2,4
10,4,2,356,f42887_e_287,1,1.011120151,1,10,1,4
10,4,2,357,f42887_e_010,1,0.861286733,1,9,1,3
10,4,2,358,f42887_e_284,1,0.680470907,1,9,2,3
10,4,2,359,f42887_e_094,1,0.860352434,1,10,1,4
10,4,2,360,f42887_e_247,1,0.970108956,1,10,2,4
10,4,2,361,f42887_e_033,1,1.080167166,1,10,1,4
10,4,2,362,f42887_e_054,1,1.430709147,1,9,1,3
10,4,2,363,f42887_e_088,1,0.670785483,1,9,1,3
10,4,2,364,f42887_e_111,1,0.830478496,1,9,1,3
10,4,2,365,f42887_e_062,1,1.511163072,1,9,1,3
10,4,2,366,f42887_e_152,1,0.920488772,1,10,2,4
10,4,2,367,f42887_e_264,1,0.951065611,1,9,1,3
10,4,2,368,f42887_e_093,1,1.090523767,1,10,2,4
10,4,2,369,f42887_e_209,1,0.610450404,1,9,1,3
10,4,2,370,f42887_e_296,1,0.510802291,1,10,2,4
10,4,2,371,f42887_e_258,1,0.531142893,0,10,1,3
10,4,2,372,f42887_e_140,1,0.890621365,1,9,2,3
10,4,2,373,f42887_e_117,1,0.750820155,1,9,1,3
10,4,2,374,f42887_e_073,1,0.880591644,1,9,1,3
10,4,2,375,f42887_e_036,1,0.596290048,1,10,2,4
10,4,2,376,f42887_e_080,1,0.840614585,1,10,1,4
10,4,2,377,f42887_e_069,1,0.620546683,1,9,2,3
10,4,2,378,f42887_e_141,1,1.100039375,1,10,1,4
10,4,2,379,f42887_e_201,1,0.649819734,1,9,1,3
10,4,2,380,f42887_e_031,1,1.05047082,1,9,2,3
10,4,2,381,f42887_e_106,1,0.900038069,1,10,1,4
10,4,2,382,f42887_e_032,1,0.760549744,1,10,2,4
10,4,2,383,f42887_e_043,1,0.670386447,1,9,1,3
10,4,2,384,f42887_e_191,1,1.13024237,0,9,1,4
10,4,2,385,f42887_e_222,1,1.140362598,1,9,1,3
10,4,2,386,f42887_e_160,1,0.980338662,1,9,2,3
10,4,2,387,f42887_e_239,1,1.45032321,1,10,1,4
10,4,2,388,f42887_e_055,1,0.819991889,1,10,2,4
10,4,2,389,f42887_e_230,1,0.790169269,1,9,2,3
10,4,2,390,f42887_e_064,1,1.109963661,1,10,1,4
10,4,2,391,f42887_e_098,1,1.139632949,1,10,1,4
10,4,2,392,f42887_e_001,1,0.630122939,1,10,2,4
10,4,2,393,f42887_e_047,1,0.620272365,1,10,2,4
10,4,2,394,f42887_e_225,1,0.919796445,1,9,2,3
10,4,2,395,f42887_e_187,1,1.189770667,1,10,1,4
10,4,2,396,f42887_e_044,1,1.039591396,1,10,2,4
10,4,2,397,f42887_e_139,1,0.819864993,1,9,1,3
10,4,2,398,f42887_e_211,1,0.969603862,1,9,2,3
10,4,2,399,f42887_e_012,1,0.969569028,0,9,2,4
10,4,2,400,f42887_e_238,1,0.649448689,1,10,2,4
10,4,2,401,f42887_e_190,1,1.00960798,1,9,1,3
10,4,2,402,f42887_e_038,1,1.149235019,1,10,1,4
10,4,2,403,f42887_e_219,1,0.879313981,1,9,1,3
10,4,2,404,f42887_e_151,1,0.719288489,1,9,2,3
10,4,2,405,f42887_e_195,1,1.556896148,1,10,1,4
10,4,2,406,f42887_e_083,1,1.249136924,1,10,2,4
10,4,2,407,f42887_e_166,1,0.989138616,1,9,1,3
10,4,2,408,f42887_e_188,1,1.06937234,1,10,2,4
10,4,2,409,f42887_e_102,1,1.26958234,1,10,2,4
10,4,2,410,f42887_e_193,1,0.909393502,1,9,2,3
10,4,2,411,f42887_e_206,1,1.379328598,1,10,2,4
10,4,2,412,f42887_e_014,1,0.809351017,1,9,2,3
10,4,2,413,f42887_e_290,1,6.539112428,1,10,1,4
10,4,2,414,f42887_e_180,1,0.908969584,1,10,2,4
10,4,2,415,f42887_e_130,1,0.808735511,1,10,2,4
10,4,2,416,f42887_e_253,1,1.229259739,1,9,2,3
10,4,2,417,f42887_e_125,1,0.788787103,1,9,2,3
10,4,2,418,f42887_e_169,1,0.849210511,1,10,2,4
10,4,2,419,f42887_e_199,1,0.599301017,1,10,2,4
10,4,2,420,f42887_e_299,1,0.649205472,1,9,2,3
10,4,2,421,f42887_e_242,1,1.079037236,1,10,1,4
10,4,2,422,f42887_e_165,1,1.038486659,1,9,1,3
10,4,2,423,f42887_e_215,1,0.808686992,0,10,1,3
10,4,2,424,f42887_e_268,1,1.278738721,1,10,1,4
10,4,2,425,f42887_e_049,1,0.798318572,1,10,1,4
10,4,2,426,f42887_e_104,1,0.848976625,1,10,1,4
10,4,2,427,f42887_e_170,1,0.889070005,1,9,1,3
10,4,2,428,f42887_e_015,1,0.798671267,1,9,1,3
10,4,2,429,f42887_e_067,1,0.739129907,1,9,2,3
10,4,2,430,f42887_e_137,1,0.633921718,1,10,2,4
10,4,2,431,f42887_e_087,1,0.86907059,1,9,2,3
10,4,2,432,f42887_e_065,1,0.938967618,1,9,2,3
10,4,2,433,f42887_e_288,1,1.108593936,1,10,1,4
10,4,2,434,f42887_e_112,1,1.808480787,1,10,1,4
10,4,2,435,f42887_e_205,1,1.158514564,1,10,2,4
10,4,2,436,f42887_e_179,1,0.788305646,1,9,2,3
10,4,2,437,f42887_e_027,1,0.838293144,1,10,2,4
10,4,2,438,f42887_e_084,1,0.908562772,1,9,1,3
10,4,2,439,f42887_e_103,1,1.008501688,1,9,1,3
10,4,2,440,f42887_e_282,1,0.828342421,1,9,2,3
10,4,2,441,f42887_e_248,1,1.358976177,1,10,1,4
10,4,2,442,f42887_e_224,1,1.168046344,1,10,2,4
10,4,2,443,f42887_e_223,1,1.358937611,1,10,1,4
10,4,2,444,f42887_e_022,1,1.14816325,1,10,2,4
10,4,2,445,f42887_e_272,1,1.478015976,1,10,1,4
10,4,2,446,f42887_e_229,1,0.828160787,1,9,2,3
10,4,2,447,f42887_e_155,1,1.777955888,1,9,1,3
10,4,2,448,f42887_e_154,1,0.920847376,1,9,2,3
10,4,2,449,f42887_e_260,1,1.388341289,1,9,1,3
10,4,2,450,f42887_e_011,1,0.918616441,1,9,1,3
10,4,2,451,f42887_e_100,1,1.118315126,1,9,1,3
10,4,2,452,f42887_e_048,1,0.877578187,1,9,2,3
10,4,2,453,f42887_e_168,1,0.667829253,1,9,2,3
10,4,2,454,f42887_e_138,1,0.57786563,1,10,2,4
10,4,2,455,f42887_e_182,1,0.618189475,1,10,2,4
10,4,2,456,f42887_e_009,1,0.687986977,1,10,2,4
10,4,2,457,f42887_e_214,1,0.967888596,1,9,1,3
10,4,2,458,f42887_e_060,1,0.958210015,1,10,1,4
10,4,2,459,f42887_e_184,1,1.117708018,1,10,1,4
10,4,2,460,f42887_e_120,1,0.687836133,1,10,2,4
10,4,2,461,f42887_e_061,1,0.837967196,1,9,2,3
10,4,2,462,f42887_e_056,1,1.198042824,1,10,1,4
10,4,2,463,f42887_e_275,1,0.907802954,1,9,2,3
10,4,2,464,f42887_e_089,1,0.967478362,1,10,2,4
10,4,2,465,f42887_e_068,1,0.757398816,1,10,2,4
10,4,2,466,f42887_e_192,1,0.717003437,1,9,2,3
10,4,2,467,f42887_e_085,1,1.227136416,1,9,1,3
10,4,2,468,f42887_e_077,1,1.477330181,1,9,1,3
10,4,2,469,f42887_e_003,1,1.15774697,1,9,2,3
10,4,2,470,f42887_e_259,1,1.337419182,1,9,1,3
10,4,2,471,f42887_e_266,1,1.28675522,1,10,2,4
10,4,2,472,f42887_e_226,1,0.857263088,1,9,1,3
10,4,2,473,f42887_e_218,1,1.187528847,1,10,1,4
10,4,2,474,f42887_e_244,1,0.767314394,1,9,2,3
10,4,2,475,f42887_e_216,1,1.86758952,1,10,1,4
10,4,2,476,f42887_e_079,1,1.537175406,1,10,1,4
10,4,2,477,f42887_e_045,1,1.067641212,1,10,1,4
10,4,2,478,f42887_e_013,1,1.027330119,1,9,2,3
10,4,2,479,f42887_e_086,1,0.727333913,1,9,2,3
10,4,2,480,f42887_e_210,1,0.637056472,1,9,2,3
10,4,2,481,f42887_e_041,1,0.926930584,1,9,1,3
10,4,2,482,f42887_e_099,1,1.026927661,1,10,2,4
10,4,2,483,f42887_e_202,1,1.086511319,1,10,1,4
10,4,2,484,f42887_e_046,1,0.836430143,1,9,2,3
10,4,2,485,f42887_e_246,1,1.577180768,1,10,1,4
10,4,2,486,f42887_e_198,1,0.696000677,1,9,2,3
10,4,2,487,f42887_e_221,1,1.756272308,1,10,1,4
10,4,2,488,f42887_e_194,1,1.208837028,1,9,1,3
10,4,2,489,f42887_e_108,1,1.056730065,1,10,1,4
10,4,2,490,f42887_e_251,1,0.836843487,1,9,2,3
10,4,2,491,f42887_e_276,1,0.796477033,1,9,1,3
10,4,2,492,f42887_e_220,1,0.886712797,1,10,2,4
10,4,2,493,f42887_e_161,1,0.826581435,1,10,2,4
10,4,2,494,f42887_e_034,1,0.895162233,1,10,1,4
10,4,2,495,f42887_e_148,1,0.786398482,1,10,2,4
10,4,2,496,f42887_e_255,1,0.606815844,1,10,2,4
10,4,2,497,f42887_e_269,1,0.596193633,1,9,1,3
10,4,2,498,f42887_e_074,1,0.696536872,1,9,1,3
10,4,2,499,f42887_e_063,1,0.656410213,1,10,2,4
10,4,2,500,f42887_e_143,1,0.516408397,1,10,2,4
10,4,2,501,f42887_e_289,1,0.556823681,1,10,1,4
10,4,2,502,f42887_e_128,1,0.756071701,1,10,2,4
10,4,2,503,f42887_e_146,1,0.636403645,1,9,1,3
10,4,2,504,f42887_e_059,1,0.916528575,1,10,1,4
10,4,2,505,f42887_e_262,1,0.916732603,1,9,2,3
10,4,2,506,f42887_e_245,1,0.931130266,1,9,1,3
10,4,2,507,f42887_e_121,1,0.746129998,1,10,2,4
10,4,2,508,f42887_e_286,1,0.585885239,1,10,2,4
10,4,2,509,f42887_e_157,1,0.616406717,1,9,1,3
10,4,2,510,f42887_e_029,1,0.676248521,1,10,2,4
10,4,2,511,f42887_e_133,1,0.566477381,1,9,2,3
10,4,2,512,f42887_e_025,1,0.616528015,1,9,2,3
10,4,2,513,f42887_e_050,1,0.656155489,0,10,1,3
10,4,2,514,f42887_e_118,1,0.715980187,1,9,1,3
10,4,2,515,f42887_e_291,1,0.706319645,1,9,2,3
10,4,2,516,f42887_e_082,1,0.805783947,1,9,1,3
10,4,2,517,f42887_e_135,1,0.655995315,1,9,2,3
10,4,2,518,f42887_e_257,1,0.625672577,1,9,2,3
10,4,2,519,f42887_e_163,1,0.746259693,1,9,2,3
10,4,2,520,f42887_e_131,1,0.585896125,0,10,2,3
10,4,2,521,f42887_e_052,1,1.74600839,1,9,1,3
10,4,2,522,f42887_e_096,1,1.055801675,1,10,1,4
10,4,2,523,f42887_e_105,1,0.915798303,0,9,2,4
10,4,2,524,f42887_e_162,1,1.179890235,1,10,1,4
10,4,2,525,f42887_e_197,1,0.675425877,1,9,1,3
10,4,2,526,f42887_e_016,1,1.115418301,1,10,1,4
10,4,2,527,f42887_e_185,1,0.705608346,1,9,1,3
10,4,2,528,f42887_e_241,1,0.815635454,1,10,1,4
10,4,2,529,f42887_e_250,1,0.796340184,0,10,1,3
10,4,2,530,f42887_e_274,1,0.935616395,1,9,2,3
10,4,2,531,f42887_e_196,1,0.885817997,1,10,1,4
10,4,2,532,f42887_e_208,1,0.615948276,1,10,2,4
10,4,2,533,f42887_e_042,1,0.814708308,1,10,2,4
10,4,2,534,f42887_e_113,1,0.59527955,1,10,2,4
10,4,2,535,f42887_e_114,1,0.564659789,0,10,2,3
10,4,2,536,f42887_e_149,1,0.5755445,1,10,2,4
10,4,2,537,f42887_e_270,1,0.74563268,1,9,1,3
10,4,2,538,f42887_e_153,1,0.675645145,1,9,2,3
10,4,2,539,f42887_e_295,1,0.615055343,1,10,2,4
10,4,2,540,f42887_e_164,1,0.554383431,1,10,2,4
10,4,2,541,f42887_e_101,1,0.675461645,1,9,2,3
10,4,2,542,f42887_e_235,1,1.114781957,1,10,1,4
10,4,2,543,f42887_e_283,1,0.634843576,1,10,2,4
10,4,2,544,f42887_e_037,1,0.825081705,1,9,2,3
10,4,2,545,f42887_e_126,1,0.954928771,1,9,2,3
10,4,2,546,f42887_e_018,1,0.65479354,1,10,1,4
10,4,2,547,f42887_e_186,1,0.835084678,1,9,2,3
10,4,2,548,f42887_e_280,1,0.974812487,1,10,1,4
10,4,2,549,f42887_e_134,1,0.645027562,1,9,2,3
10,4,2,550,f42887_e_231,1,0.834673823,1,10,2,4
10,4,2,551,f42887_e_142,1,0.764590184,1,10,2,4
10,4,2,552,f42887_e_293,1,0.654981084,1,9,2,3
10,4,2,553,f42887_e_200,1,0.794863469,1,10,2,4
10,4,2,554,f42887_e_261,1,1.174934779,1,10,1,4
10,4,2,555,f42887_e_176,1,0.824827291,1,10,2,4
10,4,2,556,f42887_e_277,1,0.964654004,1,10,2,4
10,4,2,557,f42887_e_123,1,0.694871058,1,10,2,4
10,4,2,558,f42887_e_156,1,1.014771196,1,10,1,4
10,4,2,559,f42887_e_005,1,0.634722901,1,10,2,4
10,4,2,560,f42887_e_172,1,0.746702272,1,9,2,3
10,4,2,561,f42887_e_171,1,1.22465449,1,10,1,4
10,4,2,562,f42887_e_183,1,0.984900679,1,10,2,4
10,4,2,563,f42887_e_040,1,0.874517766,1,10,2,4
10,4,2,564,f42887_e_294,1,1.144664293,1,9,1,3
10,4,2,565,f42887_e_177,1,0.63472259,1,10,2,4
10,4,2,566,f42887_e_053,1,0.664576934,1,9,2,3
10,4,2,567,f42887_e_233,1,0.634492437,1,10,2,4
10,4,2,568,f42887_e_298,1,0.664641626,1,10,2,4
10,4,2,569,f42887_e_150,1,1.314601007,1,9,1,3
10,4,2,570,f42887_e_066,1,1.524130984,0,9,2,4
10,4,2,571,f42887_e_236,1,0.683487785,1,9,2,3
10,4,2,572,f42887_e_090,1,0.754323778,1,10,2,4
10,4,2,573,f42887_e_122,1,1.084477259,1,10,1,4
10,4,2,574,f42887_e_109,1,0.814199793,1,10,2,4
10,4,2,575,f42887_e_281,1,0.794276577,1,10,1,4
10,4,2,576,f42887_e_279,1,0.884121081,1,9,1,3
10,4,2,577,f42887_e_203,1,0.884513897,1,10,1,4
10,4,2,578,f42887_e_092,1,0.803914415,1,9,2,3
10,4,2,579,f42887_e_002,1,0.794132576,1,10,2,4
10,4,2,580,f42887_e_136,1,1.213994023,1,10,1,4
10,4,2,581,f42887_e_263,1,1.503581377,1,10,1,4
10,4,2,582,f42887_e_097,1,0.993340163,1,9,1,3
10,4,2,583,f42887_e_070,1,0.693400874,1,10,2,4
10,4,2,584,f42887_e_021,1,0.6538468,0,10,1,3
10,4,2,585,f42887_e_213,1,0.664364509,1,10,1,4
10,4,2,586,f42887_e_007,1,0.863850457,1,9,2,3
10,4,2,587,f42887_e_051,1,0.653650547,1,10,1,4
10,4,2,588,f42887_e_271,1,0.643655349,1,10,2,4
10,4,2,589,f42887_e_237,1,0.833498173,1,10,1,4
10,4,2,590,f42887_e_091,1,0.803855633,1,10,1,4
10,4,2,591,f42887_e_006,1,0.649574962,1,10,2,4
10,4,2,592,f42887_e_292,1,0.795609913,1,10,1,4
10,4,2,593,f42887_e_243,1,0.67351187,1,9,2,3
10,4,2,594,f42887_e_019,1,0.523264175,1,10,2,4
10,4,2,595,f42887_e_285,1,0.563414783,1,10,2,4
10,4,2,596,f42887_e_252,1,0.61372605,1,9,2,3
10,4,2,597,f42887_e_058,1,0.512738069,1,10,2,4
10,4,2,598,f42887_e_026,1,0.583287614,1,9,2,3
10,4,2,599,f42887_e_174,1,0.673391817,1,10,1,4
10,4,2,600,f42887_e_076,1,0.689929598,0,9,1,4
11,4,1,1,f42887_e_198,1,2.053055837,1,9,2,3
11,4,1,2,f42887_e_169,1,2.470334867,1,10,1,4
11,4,1,3,f42887_e_072,1,1.951407237,1,9,1,3
11,4,1,4,f42887_e_242,1,2.031383338,1,10,2,4
11,4,1,5,f42887_e_119,1,2.740919978,1,10,1,4
11,4,1,6,f42887_e_015,1,2.230750235,1,9,2,3
11,4,1,7,f42887_e_113,1,2.440654339,1,10,2,4
11,4,1,8,f42887_e_204,1,1.300557682,1,10,2,4
11,4,1,9,f42887_e_109,1,1.860315127,1,9,1,3
11,4,1,10,f42887_e_125,1,2.630657179,1,10,2,4
11,4,1,11,f42887_e_180,1,1.710273436,1,10,2,4
11,4,1,12,f42887_e_178,1,1.840230674,1,10,1,4
11,4,1,13,f42887_e_081,1,1.225545078,1,9,2,3
11,4,1,14,f42887_e_196,1,1.10029195,1,10,1,4
11,4,1,15,f42887_e_048,1,1.469517207,1,9,2,3
11,4,1,16,f42887_e_184,1,1.350135432,1,9,1,3
11,4,1,17,f42887_e_051,1,1.969895558,1,9,2,3
11,4,1,18,f42887_e_199,1,2.549745854,1,9,1,3
11,4,1,19,f42887_e_170,1,1.701388031,1,9,1,3
11,4,1,20,f42887_e_237,1,1.680495249,1,10,2,4
11,4,1,21,f42887_e_223,1,2.200680626,1,10,1,4
11,4,1,22,f42887_e_044,1,0.989750171,1,9,1,3
11,4,1,23,f42887_e_262,1,2.259121387,1,9,2,3
11,4,1,24,f42887_e_054,1,3.63987848,1,10,1,4
11,4,1,25,f42887_e_076,1,1.479477481,1,10,2,4
11,4,1,26,f42887_e_029,1,2.410108255,1,10,2,4
11,4,1,27,f42887_e_181,1,2.150189735,1,10,2,4
11,4,1,28,f42887_e_014,1,2.452053061,1,9,2,3
11,4,1,29,f42887_e_269,1,2.439762969,1,9,1,3
11,4,1,30,f42887_e_008,1,2.449895545,1,9,1,3
11,4,1,31,f42887_e_261,1,2.422256835,1,9,2,3
11,4,1,32,f42887_e_215,1,1.869744809,1,9,2,3
11,4,1,33,f42887_e_138,1,1.838380753,1,9,1,3
11,4,1,34,f42887_e_266,1,1.359299817,1,9,1,3
11,4,1,35,f42887_e_167,1,1.919712572,1,9,2,3
11,4,1,36,f42887_e_278,1,1.793896195,1,10,2,4
11,4,1,37,f42887_e_067,1,2.028884639,1,9,1,3
11,4,1,38,f42887_e_028,1,2.209233866,1,10,2,4
11,4,1,39,f42887_e_059,1,2.150678341,1,10,1,4
11,4,1,40,f42887_e_252,1,1.186034903,1,9,1,3
11,4,1,41,f42887_e_293,1,1.849786006,1,10,1,4
11,4,1,42,f42887_e_214,1,1.371472967,1,9,1,3
11,4,1,43,f42887_e_233,1,2.9193661,1,10,2,4
11,4,1,44,f42887_e_192,1,2.351658786,1,10,1,4
11,4,1,45,f42887_e_159,1,2.888875377,1,9,1,3
11,4,1,46,f42887_e_026,1,1.349163508,1,9,2,3
11,4,1,47,f42887_e_142,1,2.351676203,1,9,2,3
11,4,1,48,f42887_e_021,1,1.059512209,1,10,2,4
11,4,1,49,f42887_e_174,1,1.639142617,1,10,2,4
11,4,1,50,f42887_e_012,1,2.249545839,1,10,2,4
11,4,1,51,f42887_e_281,1,2.069433295,1,9,1,3
11,4,1,52,f42887_e_126,1,2.311463443,1,9,2,3
11,4,1,53,f42887_e_083,1,2.202284534,1,9,2,3
11,4,1,54,f42887_e_208,1,1.881918891,1,10,1,4
11,4,1,55,f42887_e_200,1,2.168534678,1,9,1,3
11,4,1,56,f42887_e_212,1,2.179143731,1,9,2,3
11,4,1,57,f42887_e_172,1,1.999992847,1,9,2,3
11,4,1,58,f42887_e_043,1,1.32833324,1,10,2,4
11,4,1,59,f42887_e_226,1,2.190083704,1,9,1,3
11,4,1,60,f42887_e_291,1,1.679166901,1,9,2,3
11,4,1,61,f42887_e_031,1,1.730301595,1,10,2,4
11,4,1,62,f42887_e_091,1,2.058853789,1,10,2,4
11,4,1,63,f42887_e_276,1,2.459024786,1,9,1,3
11,4,1,64,f42887_e_013,1,1.218599478,1,10,2,4
11,4,1,65,f42887_e_241,1,1.175603751,1,9,2,3
11,4,1,66,f42887_e_186,1,1.738754998,1,10,1,4
11,4,1,67,f42887_e_197,1,1.708153242,1,10,1,4
11,4,1,68,f42887_e_137,1,1.588535717,1,10,1,4
11,4,1,69,f42887_e_185,1,2.448487889,1,9,1,3
11,4,1,70,f42887_e_087,1,1.808872528,1,10,1,4
11,4,1,71,f42887_e_166,1,3.727180243,1,10,2,4
11,4,1,72,f42887_e_203,1,1.831108898,1,10,2,4
11,4,1,73,f42887_e_253,1,1.658282516,0,10,1,3
11,4,1,74,f42887_e_116,1,3.014976644,1,9,2,3
11,4,1,75,f42887_e_248,1,3.51875284,1,10,1,4
11,4,1,76,f42887_e_005,1,2.33079555,1,10,2,4
11,4,1,77,f42887_e_037,1,3.139081814,1,10,1,4
11,4,1,78,f42887_e_022,1,1.818551644,1,9,1,3
11,4,1,79,f42887_e_244,1,1.978106369,1,10,2,4
11,4,1,80,f42887_e_251,1,1.804203562,1,10,1,4
11,4,1,81,f42887_e_020,1,2.71849451,1,9,1,3
11,4,1,82,f42887_e_236,1,1.60740441,1,9,1,3
11,4,1,83,f42887_e_165,1,3.483012484,1,9,2,3
11,4,1,84,f42887_e_188,1,1.579753881,1,10,2,4
11,4,1,85,f42887_e_047,1,2.148012626,1,9,2,3
11,4,1,86,f42887_e_000,1,2.218665724,1,10,1,4
11,4,1,87,f42887_e_277,1,2.50808625,1,10,1,4
11,4,1,88,f42887_e_268,1,4.348496069,1,9,2,3
11,4,1,89,f42887_e_264,1,1.878537841,1,9,2,3
11,4,1,90,f42887_e_009,1,2.978316927,1,9,1,3
11,4,1,91,f42887_e_089,1,4.119941293,1,9,1,3
11,4,1,92,f42887_e_173,1,2.220173839,1,10,1,4
11,4,1,93,f42887_e_148,1,1.837620942,1,10,1,4
11,4,1,94,f42887_e_011,1,3.964023273,1,10,1,4
11,4,1,95,f42887_e_118,1,3.578241723,1,9,1,3
11,4,1,96,f42887_e_149,1,2.608075271,1,9,1,3
11,4,1,97,f42887_e_235,1,2.908038602,1,9,1,3
11,4,1,98,f42887_e_161,1,2.447213347,1,9,2,3
11,4,1,99,f42887_e_084,1,1.997455582,1,9,2,3
11,4,1,100,f42887_e_257,1,2.978432625,1,9,2,3
11,4,1,101,f42887_e_112,1,2.41811193,1,9,1,3
11,4,1,102,f42887_e_065,1,4.166217923,1,9,2,3
11,4,1,103,f42887_e_124,1,2.529270143,1,9,2,3
11,4,1,104,f42887_e_195,1,2.04738198,1,9,2,3
11,4,1,105,f42887_e_259,1,1.399229863,1,9,2,3
11,4,1,106,f42887_e_086,1,1.707168256,1,10,2,4
11,4,1,107,f42887_e_287,1,1.777102909,1,9,2,3
11,4,1,108,f42887_e_010,1,1.147154534,1,10,2,4
11,4,1,109,f42887_e_273,1,1.342299394,1,9,2,3
11,4,1,110,f42887_e_217,1,1.994295041,1,9,1,3
11,4,1,111,f42887_e_129,1,1.990378111,1,9,1,3
11,4,1,112,f42887_e_080,1,1.412916415,1,9,2,3
11,4,1,113,f42887_e_055,1,1.769825144,1,9,1,3
11,4,1,114,f42887_e_143,1,1.376898011,1,9,2,3
11,4,1,115,f42887_e_191,1,3.227704459,1,10,1,4
11,4,1,116,f42887_e_066,1,1.946833442,1,10,2,4
11,4,1,117,f42887_e_096,1,1.417728137,1,10,2,4
11,4,1,118,f42887_e_218,1,1.705509921,1,9,2,3
11,4,1,119,f42887_e_024,1,2.116823673,1,10,1,4
11,4,1,120,f42887_e_256,1,3.287351649,1,10,1,4
11,4,1,121,f42887_e_155,1,1.648347123,1,9,2,3
11,4,1,122,f42887_e_006,1,1.766954159,1,9,1,3
11,4,1,123,f42887_e_141,1,1.816196012,0,10,1,3
11,4,1,124,f42887_e_245,1,2.412029709,1,9,1,3
11,4,1,125,f42887_e_163,1,1.356629748,1,10,2,4
11,4,1,126,f42887_e_187,1,2.117603389,1,9,2,3
11,4,1,127,f42887_e_150,1,1.848970834,1,9,2,3
11,4,1,128,f42887_e_063,1,1.06653774,1,10,2,4
11,4,1,129,f42887_e_289,1,3.362701083,1,10,2,4
11,4,1,130,f42887_e_100,1,1.766134011,1,9,2,3
11,4,1,131,f42887_e_246,1,1.346197352,1,10,2,4
11,4,1,132,f42887_e_018,1,2.597006848,1,10,1,4
11,4,1,133,f42887_e_207,1,2.3062163,1,10,2,4
11,4,1,134,f42887_e_098,1,1.547904641,1,10,2,4
11,4,1,135,f42887_e_077,1,2.236173725,1,9,1,3
11,4,1,136,f42887_e_240,1,1.925302455,1,10,2,4
11,4,1,137,f42887_e_069,1,1.667880457,1,10,2,4
11,4,1,138,f42887_e_295,1,2.677001611,1,9,1,3
11,4,1,139,f42887_e_107,1,3.176921213,1,9,2,3
11,4,1,140,f42887_e_285,1,3.736513509,1,10,2,4
11,4,1,141,f42887_e_027,1,1.495717782,1,10,2,4
11,4,1,142,f42887_e_053,1,1.326006843,1,9,2,3
11,4,1,143,f42887_e_040,1,1.265869492,1,9,1,3
11,4,1,144,f42887_e_042,1,2.115681312,1,10,2,4
11,4,1,145,f42887_e_158,1,3.316319019,1,10,2,4
11,4,1,146,f42887_e_205,1,2.896718257,1,9,2,3
11,4,1,147,f42887_e_274,1,1.275125005,1,10,2,4
11,4,1,148,f42887_e_144,1,3.284793546,1,9,1,3
11,4,1,149,f42887_e_260,1,1.689524653,1,9,2,3
11,4,1,150,f42887_e_017,1,1.705824358,1,9,1,3
11,4,1,151,f42887_e_282,1,2.946057147,1,9,1,3
11,4,1,152,f42887_e_202,1,1.645735836,1,9,1,3
11,4,1,153,f42887_e_280,1,1.375610718,1,9,2,3
11,4,1,154,f42887_e_275,1,1.423386754,1,10,2,4
11,4,1,155,f42887_e_134,1,1.541713565,1,10,2,4
11,4,1,156,f42887_e_099,1,3.866396726,1,9,1,3
11,4,1,157,f42887_e_228,1,2.218796662,1,10,2,4
11,4,1,158,f42887_e_103,1,2.766297916,1,9,1,3
11,4,1,159,f42887_e_255,1,1.199330819,1,10,1,4
11,4,1,160,f42887_e_121,1,1.838024018,1,9,1,3
11,4,1,161,f42887_e_221,1,2.408160054,1,10,1,4
11,4,1,162,f42887_e_230,1,2.435803118,1,9,2,3
11,4,1,163,f42887_e_095,1,1.605757272,1,10,1,4
11,4,1,164,f42887_e_189,1,1.945961354,1,10,2,4
11,4,1,165,f42887_e_090,1,1.515695246,1,9,1,3
11,4,1,166,f42887_e_232,1,1.865128715,1,10,1,4
11,4,1,167,f42887_e_101,1,1.55554816,1,10,1,4
11,4,1,168,f42887_e_283,1,1.363348618,1,9,2,3
11,4,1,169,f42887_e_179,1,1.334760065,1,10,2,4
11,4,1,170,f42887_e_164,1,1.285323828,1,9,1,3
11,4,1,171,f42887_e_209,1,1.405082243,0,9,2,4
11,4,1,172,f42887_e_238,1,1.730438131,1,10,2,4
11,4,1,173,f42887_e_296,1,1.883790894,1,10,2,4
11,4,1,174,f42887_e_070,1,1.331330186,1,9,2,3
11,4,1,175,f42887_e_033,1,1.861746732,1,9,1,3
11,4,1,176,f42887_e_088,1,1.431008502,1,9,1,3
11,4,1,177,f42887_e_175,1,1.430860148,1,9,2,3
11,4,1,178,f42887_e_279,1,1.96126923,1,10,1,4
11,4,1,179,f42887_e_254,1,1.971266515,1,10,1,4
11,4,1,180,f42887_e_160,1,1.691158418,1,9,2,3
11,4,1,181,f42887_e_297,1,1.101073532,1,9,2,3
11,4,1,182,f42887_e_290,1,3.101577689,1,10,1,4
11,4,1,183,f42887_e_190,1,2.631556947,1,10,1,4
11,4,1,184,f42887_e_079,1,2.183665897,1,9,1,3
11,4,1,185,f42887_e_288,1,1.593107024,1,9,2,3
11,4,1,186,f42887_e_216,1,2.003081542,1,10,1,4
11,4,1,187,f42887_e_213,1,2.121321269,1,9,2,3
11,4,1,188,f42887_e_263,1,1.710870274,1,10,1,4
11,4,1,189,f42887_e_057,1,1.706087788,1,9,2,3
11,4,1,190,f42887_e_108,1,2.101160928,1,10,1,4
11,4,1,191,f42887_e_097,1,2.100709022,1,10,1,4
11,4,1,192,f42887_e_016,1,2.120643255,1,9,1,3
11,4,1,193,f42887_e_073,1,2.892981405,1,10,1,4
11,4,1,194,f42887_e_239,1,4.371205182,1,9,2,3
11,4,1,195,f42887_e_058,1,1.890148675,1,9,1,3
11,4,1,196,f42887_e_030,1,2.389604242,1,9,2,3
11,4,1,197,f42887_e_168,1,1.229712376,1,10,2,4
11,4,1,198,f42887_e_210,1,1.559514542,1,10,1,4
11,4,1,199,f42887_e_078,1,2.070350169,1,9,2,3
11,4,1,200,f42887_e_120,1,1.399971635,1,10,2,4
11,4,1,201,f42887_e_056,1,2.840718035,1,9,1,3
11,4,1,202,f42887_e_110,1,1.402279682,1,10,2,4
11,4,1,203,f42887_e_133,1,1.801138504,1,9,2,3
11,4,1,204,f42887_e_094,1,1.819707067,0,9,1,4
11,4,1,205,f42887_e_222,1,2.14054763,1,9,2,3
11,4,1,206,f42887_e_122,1,1.922147824,1,10,2,4
11,4,1,207,f42887_e_271,1,2.580209208,1,9,1,3
11,4,1,208,f42887_e_145,1,2.50176237,1,9,2,3
11,4,1,209,f42887_e_004,1,1.749475705,1,10,2,4
11,4,1,210,f42887_e_104,1,1.930267819,1,9,2,3
11,4,1,211,f42887_e_136,1,2.177767487,1,9,1,3
11,4,1,212,f42887_e_127,1,1.451747021,1,10,1,4
11,4,1,213,f42887_e_258,1,1.889765193,1,9,1,3
11,4,1,214,f42887_e_156,1,2.152174948,1,10,1,4
11,4,1,215,f42887_e_220,1,1.702773917,1,10,2,4
11,4,1,216,f42887_e_193,1,1.269562802,1,10,2,4
11,4,1,217,f42887_e_049,1,1.051479299,1,10,2,4
11,4,1,218,f42887_e_052,1,1.458958228,1,10,1,4
11,4,1,219,f42887_e_201,1,1.099773487,1,10,2,4
11,4,1,220,f42887_e_299,1,1.408788305,1,9,2,3
11,4,1,221,f42887_e_132,1,2.149770797,1,10,1,4
11,4,1,222,f42887_e_071,1,1.967844721,1,9,2,3
11,4,1,223,f42887_e_023,1,2.184404559,1,9,2,3
11,4,1,224,f42887_e_286,1,1.469308205,1,9,2,3
11,4,1,225,f42887_e_123,1,3.139946437,1,9,2,3
11,4,1,226,f42887_e_272,1,1.999515127,1,10,1,4
11,4,1,227,f42887_e_035,1,2.059460892,1,9,1,3
11,4,1,228,f42887_e_130,1,1.248507669,1,10,2,4
11,4,1,229,f42887_e_025,1,2.164505471,1,10,1,4
11,4,1,230,f42887_e_115,1,1.789851126,1,9,2,3
11,4,1,231,f42887_e_111,1,1.76931259,1,10,1,4
11,4,1,232,f42887_e_162,1,1.379323622,1,9,1,3
11,4,1,233,f42887_e_294,1,1.448755051,1,10,2,4
11,4,1,234,f42887_e_243,1,1.538348377,1,10,2,4
11,4,1,235,f42887_e_068,1,1.328936299,1,10,1,4
11,4,1,236,f42887_e_176,1,1.588513946,1,10,1,4
11,4,1,237,f42887_e_135,1,2.951222182,1,9,1,3
11,4,1,238,f42887_e_045,1,2.063841857,1,9,2,3
11,4,1,239,f42887_e_247,1,2.639173097,1,10,2,4
11,4,1,240,f42887_e_267,1,1.418826955,1,10,2,4
11,4,1,241,f42887_e_128,1,1.328671002,1,10,2,4
11,4,1,242,f42887_e_003,1,2.129316546,1,10,1,4
11,4,1,243,f42887_e_284,1,1.278742738,1,10,1,4
11,4,1,244,f42887_e_062,1,2.308617962,1,9,1,3
11,4,1,245,f42887_e_140,1,2.348824501,1,10,1,4
11,4,1,246,f42887_e_249,1,1.868727788,1,9,2,3
11,4,1,247,f42887_e_146,1,1.459056198,1,10,1,4
11,4,1,248,f42887_e_061,1,1.55115662,1,9,2,3
11,4,1,249,f42887_e_229,1,2.598623818,1,9,1,3
11,4,1,250,f42887_e_032,1,2.038674787,1,10,1,4
11,4,1,251,f42887_e_092,1,1.898571288,1,9,2,3
11,4,1,252,f42887_e_227,1,1.178481889,1,9,2,3
11,4,1,253,f42887_e_206,1,1.790935015,1,10,1,4
11,4,1,254,f42887_e_139,1,1.640868443,1,9,1,3
11,4,1,255,f42887_e_106,1,1.447980311,1,10,1,4
11,4,1,256,f42887_e_102,1,1.328689041,1,10,2,4
11,4,1,257,f42887_e_292,1,1.248074114,1,10,1,4
11,4,1,258,f42887_e_177,1,1.10815629,1,10,2,4
11,4,1,259,f42887_e_194,1,1.157463145,1,9,2,3
11,4,1,260,f42887_e_298,1,1.448233167,1,10,2,4
11,4,1,261,f42887_e_001,1,1.558666403,1,10,2,4
11,4,1,262,f42887_e_036,1,1.488451836,1,9,1,3
11,4,1,263,f42887_e_147,1,1.498034537,1,10,2,4
11,4,1,264,f42887_e_093,1,1.578191961,1,10,1,4
11,4,1,265,f42887_e_152,1,1.427745327,1,10,1,4
11,4,1,266,f42887_e_002,1,2.62245943,1,9,2,3
11,4,1,267,f42887_e_041,1,1.668234393,1,10,2,4
11,4,1,268,f42887_e_219,1,1.727411327,1,10,1,4
11,4,1,269,f42887_e_151,1,2.157020259,1,10,1,4
11,4,1,270,f42887_e_114,1,1.418005252,1,10,2,4
11,4,1,271,f42887_e_064,1,1.237817753,1,10,2,4
11,4,1,272,f42887_e_131,1,1.637858434,1,10,2,4
11,4,1,273,f42887_e_046,1,2.62817683,1,9,1,3
11,4,1,274,f42887_e_225,1,3.137168135,1,9,1,3
11,4,1,275,f42887_e_224,1,2.570068856,1,9,1,3
11,4,1,276,f42887_e_183,1,2.289791567,1,10,2,4
11,4,1,277,f42887_e_075,1,1.717895805,1,10,1,4
11,4,1,278,f42887_e_154,1,1.987798548,1,9,1,3
11,4,1,279,f42887_e_171,1,2.700484531,1,9,1,3
11,4,1,280,f42887_e_007,1,2.158232287,1,9,1,3
11,4,1,281,f42887_e_234,1,1.478061116,1,9,2,3
11,4,1,282,f42887_e_082,1,1.852710796,1,9,1,3
11,4,1,283,f42887_e_105,1,1.450153377,0,10,1,3
11,4,1,284,f42887_e_034,1,1.157181054,1,9,2,3
11,4,1,285,f42887_e_019,1,1.616877945,1,10,1,4
11,4,1,286,f42887_e_231,1,1.353075462,1,9,2,3
11,4,1,287,f42887_e_117,1,2.047723475,1,9,1,3
11,4,1,288,f42887_e_265,1,1.487435437,1,10,1,4
11,4,1,289,f42887_e_060,1,1.699499856,1,9,2,3
11,4,1,290,f42887_e_270,1,1.457490546,1,10,2,4
11,4,1,291,f42887_e_250,1,1.727704926,1,10,2,4
11,4,1,292,f42887_e_038,1,1.317190173,1,10,2,4
11,4,1,293,f42887_e_050,1,1.827469394,1,9,1,3
11,4,1,294,f42887_e_182,1,1.259068204,1,9,2,3
11,4,1,295,f42887_e_211,1,1.347615272,1,10,2,4
11,4,1,296,f42887_e_085,1,1.58687987,1,10,1,4
11,4,1,297,f42887_e_157,1,1.326512243,1,9,2,3
11,4,1,298,f42887_e_039,1,1.537221256,1,10,1,4
11,4,1,299,f42887_e_074,1,1.128593124,1,10,2,4
11,4,1,300,f42887_e_153,1,1.546558255,1,9,2,3
11,4,2,301,f42887_e_097,1,1.298675105,1,10,1,4
11,4,2,302,f42887_e_060,1,1.498971627,1,10,1,4
11,4,2,303,f42887_e_159,1,1.148944118,1,10,2,4
11,4,2,304,f42887_e_075,1,1.518027241,1,9,1,3
11,4,2,305,f42887_e_193,1,1.119003581,1,9,2,3
11,4,2,306,f42887_e_004,1,1.259037413,1,10,1,4
11,4,2,307,f42887_e_225,1,1.478988565,1,9,1,3
11,4,2,308,f42887_e_263,1,1.259281249,1,9,1,3
11,4,2,309,f42887_e_016,1,2.258793577,1,9,2,3
11,4,2,310,f42887_e_135,1,1.899444308,1,10,1,4
11,4,2,311,f42887_e_066,1,1.269283199,1,10,2,4
11,4,2,312,f42887_e_181,1,1.779021875,1,9,2,3
11,4,2,313,f42887_e_019,1,1.791856244,1,10,2,4
11,4,2,314,f42887_e_270,1,1.348682367,1,10,2,4
11,4,2,315,f42887_e_138,1,0.808509573,1,9,2,3
11,4,2,316,f42887_e_192,1,3.239342662,1,9,1,3
11,4,2,317,f42887_e_210,1,0.827643873,1,9,1,3
11,4,2,318,f42887_e_157,1,1.405502736,1,10,2,4
11,4,2,319,f42887_e_072,1,1.0578066,1,9,2,3
11,4,2,320,f42887_e_260,1,0.748121855,1,10,2,4
11,4,2,321,f42887_e_144,1,0.271608974,0,9,1,4
11,4,2,322,f42887_e_078,1,1.308581262,0,10,2,3
11,4,2,323,f42887_e_251,1,1.372186125,1,9,2,3
11,4,2,324,f42887_e_280,1,1.18830936,1,10,2,4
11,4,2,325,f42887_e_212,1,1.527196602,1,9,1,3
11,4,2,326,f42887_e_274,1,1.677615244,1,9,2,3
11,4,2,327,f42887_e_198,1,1.360037235,1,9,2,3
11,4,2,328,f42887_e_282,1,1.678460274,1,9,1,3
11,4,2,329,f42887_e_221,1,0.907800675,1,9,1,3
11,4,2,330,f42887_e_022,1,0.828395287,1,9,1,3
11,4,2,331,f42887_e_178,1,1.05814032,0,10,1,3
11,4,2,332,f42887_e_109,1,0.737679196,1,10,1,4
11,4,2,333,f42887_e_007,1,1.488045961,1,10,2,4
11,4,2,334,f42887_e_226,1,1.548099959,1,10,1,4
11,4,2,335,f42887_e_023,1,1.257947303,1,9,1,3
11,4,2,336,f42887_e_293,1,0.74714651,1,9,1,3
11,4,2,337,f42887_e_165,1,1.318076879,1,9,2,3
11,4,2,338,f42887_e_207,1,0.728038024,1,10,2,4
11,4,2,339,f42887_e_122,1,0.618124806,1,10,2,4
11,4,2,340,f42887_e_171,1,0.59812837,1,10,2,4
11,4,2,341,f42887_e_253,1,1.537463848,1,9,2,3
11,4,2,342,f42887_e_010,1,1.26833087,1,10,1,4
11,4,2,343,f42887_e_038,1,0.64764174,1,10,1,4
11,4,2,344,f42887_e_031,1,1.237084378,1,9,2,3
11,4,2,345,f42887_e_127,1,0.567114519,1,9,2,3
11,4,2,346,f42887_e_290,1,0.928139539,1,10,2,4
11,4,2,347,f42887_e_125,1,1.067175011,1,10,2,4
11,4,2,348,f42887_e_081,1,0.88776474,1,10,2,4
11,4,2,349,f42887_e_188,1,1.167586703,1,9,1,3
11,4,2,350,f42887_e_247,1,1.547703103,1,9,2,3
11,4,2,351,f42887_e_286,1,1.246709066,1,10,1,4
11,4,2,352,f42887_e_239,1,0.896815605,1,9,1,3
11,4,2,353,f42887_e_275,1,1.257429462,1,9,2,3
11,4,2,354,f42887_e_238,1,1.14738313,0,9,1,4
11,4,2,355,f42887_e_129,1,2.794468463,1,9,2,3
11,4,2,356,f42887_e_024,1,2.627789615,1,10,2,4
11,4,2,357,f42887_e_079,1,1.197328501,0,10,1,3
11,4,2,358,f42887_e_140,1,1.097404482,1,10,2,4
11,4,2,359,f42887_e_112,1,0.917426918,1,9,2,3
11,4,2,360,f42887_e_283,1,0.827414033,1,9,2,3
11,4,2,361,f42887_e_241,1,1.200420617,1,10,1,4
11,4,2,362,f42887_e_261,1,0.547146385,1,10,1,4
11,4,2,363,f42887_e_231,1,0.586842237,1,10,1,4
11,4,2,364,f42887_e_005,1,0.596728489,1,10,1,4
11,4,2,365,f42887_e_227,1,0.901223318,1,9,2,3
11,4,2,366,f42887_e_095,1,0.926998112,1,10,2,4
11,4,2,367,f42887_e_034,1,1.447008388,1,9,1,3
11,4,2,368,f42887_e_113,1,0.847652439,1,10,1,4
11,4,2,369,f42887_e_056,1,0.756455828,1,9,1,3
11,4,2,370,f42887_e_050,1,0.786465411,1,10,1,4
11,4,2,371,f42887_e_289,1,1.299071961,1,10,2,4
11,4,2,372,f42887_e_116,1,0.546766013,0,10,1,3
11,4,2,373,f42887_e_232,1,1.005497511,0,10,1,3
11,4,2,374,f42887_e_258,1,0.616559154,1,10,1,4
11,4,2,375,f42887_e_106,1,1.206795193,1,10,2,4
11,4,2,376,f42887_e_186,1,1.057495584,1,9,2,3
11,4,2,377,f42887_e_040,1,0.706448255,1,10,2,4
11,4,2,378,f42887_e_254,1,1.122469538,1,9,1,3
11,4,2,379,f42887_e_278,1,1.146492693,1,10,1,4
11,4,2,380,f42887_e_084,1,1.496813179,1,10,2,4
11,4,2,381,f42887_e_102,1,0.995935959,1,9,2,3
11,4,2,382,f42887_e_077,1,0.726052811,1,9,2,3
11,4,2,383,f42887_e_185,1,1.336932198,1,9,1,3
11,4,2,384,f42887_e_223,1,1.237018754,1,10,2,4
11,4,2,385,f42887_e_045,1,1.126839618,1,10,2,4
11,4,2,386,f42887_e_118,1,0.975886029,1,10,2,4
11,4,2,387,f42887_e_035,1,0.736176057,1,10,2,4
11,4,2,388,f42887_e_015,1,0.816358051,1,9,2,3
11,4,2,389,f42887_e_250,1,1.176066853,1,9,1,3
11,4,2,390,f42887_e_145,1,1.816261947,1,10,2,4
11,4,2,391,f42887_e_133,1,0.605309409,1,10,2,4
11,4,2,392,f42887_e_136,1,0.785661746,1,9,2,3
11,4,2,393,f42887_e_200,1,0.666386027,1,10,2,4
11,4,2,394,f42887_e_183,1,0.65607275,1,9,2,3
11,4,2,395,f42887_e_182,1,0.575479905,1,9,2,3
11,4,2,396,f42887_e_123,1,0.945831038,1,9,1,3
11,4,2,397,f42887_e_168,1,1.44608125,1,10,2,4
11,4,2,398,f42887_e_085,1,1.405582045,1,9,1,3
11,4,2,399,f42887_e_272,1,1.175299578,1,10,2,4
11,4,2,400,f42887_e_291,1,0.815868202,1,9,2,3
11,4,2,401,f42887_e_141,1,0.565953187,1,9,2,3
11,4,2,402,f42887_e_001,1,0.926181696,0,10,2,3
11,4,2,403,f42887_e_158,1,0.755533356,1,9,2,3
11,4,2,404,f42887_e_287,1,1.296372656,1,9,1,3
11,4,2,405,f42887_e_173,1,1.548720435,1,10,2,4
11,4,2,406,f42887_e_163,1,0.675489764,1,10,2,4
11,4,2,407,f42887_e_201,1,0.565268952,1,9,2,3
11,4,2,408,f42887_e_162,1,0.788503185,1,9,2,3
11,4,2,409,f42887_e_071,1,1.105306766,1,10,1,4
11,4,2,410,f42887_e_196,1,1.465382566,1,10,2,4
11,4,2,411,f42887_e_018,1,1.365353735,1,9,1,3
11,4,2,412,f42887_e_206,1,0.865525571,1,9,1,3
11,4,2,413,f42887_e_014,1,1.10545201,0,9,2,4
11,4,2,414,f42887_e_074,1,1.335497483,1,9,1,3
11,4,2,415,f42887_e_124,1,0.565161963,1,9,1,3
11,4,2,416,f42887_e_131,1,0.525108132,1,9,1,3
11,4,2,417,f42887_e_029,1,0.585293068,1,10,1,4
11,4,2,418,f42887_e_229,1,0.695208774,1,10,1,4
11,4,2,419,f42887_e_099,1,0.744934878,1,9,1,3
11,4,2,420,f42887_e_235,1,1.045203627,1,10,2,4
11,4,2,421,f42887_e_013,1,1.074810755,1,10,2,4
11,4,2,422,f42887_e_240,1,1.52551463,0,10,1,3
11,4,2,423,f42887_e_068,1,1.535340856,1,9,2,3
11,4,2,424,f42887_e_142,1,0.710490524,1,9,2,3
11,4,2,425,f42887_e_032,1,0.735315788,1,10,2,4
11,4,2,426,f42887_e_284,1,0.875581016,1,9,2,3
11,4,2,427,f42887_e_008,1,1.814853669,1,10,1,4
11,4,2,428,f42887_e_246,1,1.18496532,1,10,1,4
11,4,2,429,f42887_e_222,1,1.561245344,1,10,2,4
11,4,2,430,f42887_e_039,1,0.885054551,1,9,2,3
11,4,2,431,f42887_e_161,1,1.024901774,1,9,2,3
11,4,2,432,f42887_e_090,1,0.972171881,1,9,2,3
11,4,2,433,f42887_e_288,1,1.524725894,1,9,2,3
11,4,2,434,f42887_e_216,1,1.365054538,1,10,2,4
11,4,2,435,f42887_e_128,1,1.335136705,1,9,1,3
11,4,2,436,f42887_e_021,1,1.244944986,1,10,2,4
11,4,2,437,f42887_e_299,1,1.275167925,1,10,2,4
11,4,2,438,f42887_e_089,1,1.455169437,1,10,1,4
11,4,2,439,f42887_e_104,1,1.334996748,1,10,1,4
11,4,2,440,f42887_e_169,1,1.232333304,1,10,1,4
11,4,2,441,f42887_e_285,1,1.124707917,1,10,2,4
11,4,2,442,f42887_e_264,1,1.844797627,1,9,2,3
11,4,2,443,f42887_e_067,1,1.365203515,1,10,1,4
11,4,2,444,f42887_e_255,1,1.404769362,1,10,2,4
11,4,2,445,f42887_e_208,1,1.474838373,1,10,1,4
11,4,2,446,f42887_e_277,1,1.444449663,1,10,1,4
11,4,2,447,f42887_e_276,1,3.955634871,1,10,1,4
11,4,2,448,f42887_e_218,1,1.655069103,1,10,1,4
11,4,2,449,f42887_e_073,1,1.103920569,1,9,1,3
11,4,2,450,f42887_e_065,1,1.274490844,1,9,2,3
11,4,2,451,f42887_e_107,1,1.484512513,1,10,2,4
11,4,2,452,f42887_e_002,1,1.254034416,1,9,2,3
11,4,2,453,f42887_e_242,1,1.52436325,1,9,2,3
11,4,2,454,f42887_e_236,1,1.243854876,1,10,2,4
11,4,2,455,f42887_e_292,1,1.924349503,1,9,2,3
11,4,2,456,f42887_e_149,1,1.043729413,1,9,2,3
11,4,2,457,f42887_e_130,1,1.38407594,1,10,1,4
11,4,2,458,f42887_e_049,1,1.374327468,1,10,1,4
11,4,2,459,f42887_e_245,1,1.634894455,1,10,2,4
11,4,2,460,f42887_e_268,1,1.783749623,1,10,1,4
11,4,2,461,f42887_e_294,1,1.724561491,0,9,1,4
11,4,2,462,f42887_e_187,1,1.054003501,1,10,2,4
11,4,2,463,f42887_e_156,1,1.440686996,1,10,1,4
11,4,2,464,f42887_e_296,1,2.224490113,1,10,1,4
11,4,2,465,f42887_e_152,1,1.6443711,1,9,2,3
11,4,2,466,f42887_e_117,1,1.674238548,1,9,1,3
11,4,2,467,f42887_e_151,1,1.293751106,1,10,1,4
11,4,2,468,f42887_e_105,1,1.483889237,1,9,2,3
11,4,2,469,f42887_e_051,1,1.364062398,1,10,1,4
11,4,2,470,f42887_e_139,1,1.443851891,1,10,2,4
11,4,2,471,f42887_e_100,1,0.883620769,1,10,2,4
11,4,2,472,f42887_e_033,1,1.293797447,1,10,2,4
11,4,2,473,f42887_e_220,1,0.913521807,1,10,2,4
11,4,2,474,f42887_e_027,1,1.394361225,1,10,1,4
11,4,2,475,f42887_e_197,1,1.763342957,1,10,1,4
11,4,2,476,f42887_e_000,1,1.223044824,1,10,1,4
11,4,2,477,f42887_e_046,1,1.042688133,1,10,2,4
11,4,2,478,f42887_e_076,1,1.073385992,1,10,2,4
11,4,2,479,f42887_e_028,1,1.043040513,1,10,2,4
11,4,2,480,f42887_e_026,1,1.453370211,1,9,1,3
11,4,2,481,f42887_e_110,1,1.303622741,1,10,1,4
11,4,2,482,f42887_e_143,1,1.884312156,1,10,1,4
11,4,2,483,f42887_e_132,1,1.963848171,1,9,2,3
11,4,2,484,f42887_e_059,1,1.593745228,1,9,1,3
11,4,2,485,f42887_e_211,1,2.403137774,1,10,1,4
11,4,2,486,f42887_e_153,1,1.223490509,1,9,1,3
11,4,2,487,f42887_e_061,1,1.583700047,1,9,2,3
11,4,2,488,f42887_e_248,1,2.443249142,1,10,1,4
11,4,2,489,f42887_e_179,1,1.471918559,1,10,2,4
11,4,2,490,f42887_e_121,1,1.253418294,1,10,2,4
11,4,2,491,f42887_e_166,1,1.553895735,0,10,2,3
11,4,2,492,f42887_e_217,1,1.623409583,1,10,1,4
11,4,2,493,f42887_e_189,1,2.00360436,1,9,1,3
11,4,2,494,f42887_e_269,1,1.16346699,1,10,2,4
11,4,2,495,f42887_e_160,1,1.523200985,1,9,2,3
11,4,2,496,f42887_e_148,1,1.702951818,1,10,2,4
11,4,2,497,f42887_e_194,1,2.093412286,1,9,2,3
11,4,2,498,f42887_e_219,1,1.132709104,1,9,2,3
11,4,2,499,f42887_e_191,1,1.350791675,1,9,1,3
11,4,2,500,f42887_e_167,1,1.733238826,1,9,2,3
11,4,2,501,f42887_e_170,1,1.492788637,1,10,1,4
11,4,2,502,f42887_e_063,1,1.16290965,1,10,2,4
11,4,2,503,f42887_e_146,1,0.942944192,1,10,2,4
11,4,2,504,f42887_e_249,1,2.133340466,1,10,1,4
11,4,2,505,f42887_e_265,1,1.452938522,1,9,2,3
11,4,2,506,f42887_e_011,1,1.409005394,1,9,1,3
11,4,2,507,f42887_e_115,1,2.183485819,1,9,2,3
11,4,2,508,f42887_e_080,1,1.593014963,1,9,2,3
11,4,2,509,f42887_e_036,1,2.212442925,1,10,1,4
11,4,2,510,f42887_e_070,1,1.272753822,1,10,2,4
11,4,2,511,f42887_e_195,1,1.722104157,1,9,1,3
11,4,2,512,f42887_e_213,1,1.282233266,1,9,2,3
11,4,2,513,f42887_e_203,1,1.712705577,1,9,1,3
11,4,2,514,f42887_e_205,1,1.30254756,1,10,2,4
11,4,2,515,f42887_e_147,1,1.332709851,1,9,1,3
11,4,2,516,f42887_e_273,1,2.762952011,1,9,1,3
11,4,2,517,f42887_e_062,1,2.41214012,1,9,2,3
11,4,2,518,f42887_e_154,1,0.672208861,1,9,2,3
11,4,2,519,f42887_e_180,1,1.112478474,0,9,1,4
11,4,2,520,f42887_e_172,1,0.692203119,1,9,1,3
11,4,2,521,f42887_e_042,1,1.151979008,1,10,2,4
11,4,2,522,f42887_e_120,1,0.79229913,1,9,2,3
11,4,2,523,f42887_e_069,1,1.272510919,1,10,1,4
11,4,2,524,f42887_e_012,1,0.742459816,1,9,1,3
11,4,2,525,f42887_e_266,1,0.641733999,1,9,1,3
11,4,2,526,f42887_e_237,1,1.221920814,1,9,2,3
11,4,2,527,f42887_e_103,1,1.172000014,1,9,1,3
11,4,2,528,f42887_e_041,1,1.562067669,1,10,2,4
11,4,2,529,f42887_e_224,1,1.503365344,1,10,1,4
11,4,2,530,f42887_e_083,1,0.641221134,1,10,1,4
11,4,2,531,f42887_e_134,1,0.512791604,1,10,1,4
11,4,2,532,f42887_e_108,1,0.932285377,1,9,2,3
11,4,2,533,f42887_e_259,1,0.531750803,1,9,2,3
11,4,2,534,f42887_e_204,1,1.001777454,1,10,1,4
11,4,2,535,f42887_e_037,1,0.501771078,1,10,1,4
11,4,2,536,f42887_e_298,1,0.501544037,1,10,1,4
11,4,2,537,f42887_e_025,1,1.08229068,0,10,2,3
11,4,2,538,f42887_e_052,1,0.626554884,1,9,2,3
11,4,2,539,f42887_e_020,1,0.581529469,1,9,2,3
11,4,2,540,f42887_e_087,1,0.560758293,1,9,2,3
11,4,2,541,f42887_e_252,1,0.520644126,1,9,2,3
11,4,2,542,f42887_e_209,1,0.991467599,0,9,1,4
11,4,2,543,f42887_e_279,1,2.261992061,0,10,2,3
11,4,2,544,f42887_e_177,1,1.672180558,1,9,1,3
11,4,2,545,f42887_e_094,1,1.301401156,1,10,1,4
11,4,2,546,f42887_e_091,1,1.661706487,1,9,2,3
11,4,2,547,f42887_e_043,1,1.351325688,1,10,2,4
11,4,2,548,f42887_e_214,1,1.641258145,1,9,2,3
11,4,2,549,f42887_e_262,1,1.10135438,1,10,2,4
11,4,2,550,f42887_e_199,1,1.861345833,1,10,1,4
11,4,2,551,f42887_e_244,1,1.411393061,1,9,1,3
11,4,2,552,f42887_e_088,1,1.390796676,1,9,2,3
11,4,2,553,f42887_e_155,1,0.931164477,1,9,2,3
11,4,2,554,f42887_e_003,1,1.271769147,1,9,1,3
11,4,2,555,f42887_e_009,1,1.561633491,1,10,1,4
11,4,2,556,f42887_e_257,1,1.660971868,1,9,1,3
11,4,2,557,f42887_e_057,1,1.437045004,1,10,2,4
11,4,2,558,f42887_e_233,1,0.941570436,1,9,2,3
11,4,2,559,f42887_e_053,1,1.050748101,1,9,1,3
11,4,2,560,f42887_e_234,1,1.250313426,1,10,1,4
11,4,2,561,f42887_e_086,1,1.351233939,1,9,1,3
11,4,2,562,f42887_e_230,1,1.821109125,1,9,2,3
11,4,2,563,f42887_e_047,1,1.626840707,1,10,2,4
11,4,2,564,f42887_e_126,1,1.611235811,1,10,1,4
11,4,2,565,f42887_e_176,1,0.97093746,1,9,2,3
11,4,2,566,f42887_e_101,1,1.450094595,1,10,2,4
11,4,2,567,f42887_e_017,1,1.140500978,1,9,2,3
11,4,2,568,f42887_e_096,1,1.360930783,1,10,1,4
11,4,2,569,f42887_e_256,1,1.521153569,1,9,2,3
11,4,2,570,f42887_e_092,1,1.149350926,1,9,2,3
11,4,2,571,f42887_e_048,1,1.480904732,1,10,2,4
11,4,2,572,f42887_e_137,1,1.530740936,1,10,2,4
11,4,2,573,f42887_e_297,1,1.470983957,1,9,1,3
11,4,2,574,f42887_e_281,1,0.948243586,1,10,2,4
11,4,2,575,f42887_e_202,1,1.220637563,1,9,1,3
11,4,2,576,f42887_e_164,1,1.350722007,1,9,1,3
11,4,2,577,f42887_e_215,1,1.2803877,1,9,1,3
11,4,2,578,f42887_e_175,1,1.255779836,1,9,1,3
11,4,2,579,f42887_e_271,1,1.040711318,1,10,2,4
11,4,2,580,f42887_e_058,1,1.439624567,1,10,1,4
11,4,2,581,f42887_e_044,1,2.299536307,1,9,2,3
11,4,2,582,f42887_e_055,1,1.880806389,1,10,1,4
11,4,2,583,f42887_e_190,1,1.160381716,1,10,2,4
11,4,2,584,f42887_e_098,1,1.160604403,1,10,1,4
11,4,2,585,f42887_e_082,1,1.149929415,1,10,2,4
11,4,2,586,f42887_e_006,1,1.129170369,1,10,1,4
11,4,2,587,f42887_e_064,1,1.230152774,1,10,1,4
11,4,2,588,f42887_e_111,1,1.31060504,1,10,1,4
11,4,2,589,f42887_e_093,1,1.175179215,1,10,1,4
11,4,2,590,f42887_e_243,1,1.14065182,1,10,1,4
11,4,2,591,f42887_e_114,1,1.709876891,1,9,1,3
11,4,2,592,f42887_e_174,1,1.420008503,1,9,2,3
11,4,2,593,f42887_e_054,1,2.460735682,1,9,2,3
11,4,2,594,f42887_e_295,1,1.400690703,1,10,2,4
11,4,2,595,f42887_e_030,1,0.099954809,1,10,2,4
11,4,2,596,f42887_e_228,1,1.050544697,1,9,2,3
11,4,2,597,f42887_e_119,1,1.029381953,1,10,1,4
11,4,2,598,f42887_e_184,1,1.049290371,1,9,2,3
11,4,2,599,f42887_e_150,1,1.199455847,1,10,2,4
11,4,2,600,f42887_e_267,1,1.499925512,1,9,2,3
12,4,1,1,f42887_e_096,1,1.678592667,1,9,2,3
12,4,1,2,f42887_e_262,1,1.252071071,1,9,1,3
12,4,1,3,f42887_e_141,1,1.512348674,1,9,2,3
12,4,1,4,f42887_e_293,1,1.552355591,1,10,2,4
12,4,1,5,f42887_e_067,1,3.87192916,1,10,1,4
12,4,1,6,f42887_e_028,1,1.872280611,1,9,2,3
12,4,1,7,f42887_e_116,1,3.132270832,1,9,2,3
12,4,1,8,f42887_e_040,1,1.901874632,1,9,2,3
12,4,1,9,f42887_e_134,1,1.731824086,1,10,1,4
12,4,1,10,f42887_e_015,1,1.632176905,1,9,1,3
12,4,1,11,f42887_e_236,1,1.082128759,1,10,1,4
12,4,1,12,f42887_e_181,1,1.161589914,1,10,1,4
12,4,1,13,f42887_e_065,1,1.472106316,1,9,2,3
12,4,1,14,f42887_e_269,1,1.132177838,1,9,1,3
12,4,1,15,f42887_e_191,1,0.712328209,1,9,1,3
12,4,1,16,f42887_e_203,1,1.365166065,1,10,1,4
12,4,1,17,f42887_e_147,1,1.622122613,1,10,2,4
12,4,1,18,f42887_e_142,1,1.441798818,1,9,1,3
12,4,1,19,f42887_e_290,1,1.52171126,0,10,2,3
12,4,1,20,f42887_e_069,1,0.899828131,1,9,2,3
12,4,1,21,f42887_e_133,1,0.55164678,1,10,2,4
12,4,1,22,f42887_e_200,1,1.441437104,1,9,1,3
12,4,1,23,f42887_e_130,1,1.601933166,1,10,2,4
12,4,1,24,f42887_e_009,1,1.026266436,1,9,1,3
12,4,1,25,f42887_e_099,1,0.841221693,1,9,1,3
12,4,1,26,f42887_e_244,1,1.281471328,1,9,2,3
12,4,1,27,f42887_e_295,1,4.031239309,1,10,1,4
12,4,1,28,f42887_e_248,1,1.781985753,1,10,2,4
12,4,1,29,f42887_e_070,1,1.371574288,1,9,2,3
12,4,1,30,f42887_e_054,1,0.98137653,1,9,2,3
12,4,1,31,f42887_e_156,1,0.691703336,1,10,2,4
12,4,1,32,f42887_e_229,1,1.49157389,1,10,1,4
12,4,1,33,f42887_e_038,1,1.351522933,1,10,2,4
12,4,1,34,f42887_e_092,1,1.36135298,1,10,2,4
12,4,1,35,f42887_e_125,1,0.680927793,1,9,2,3
12,4,1,36,f42887_e_144,1,1.290750562,1,10,1,4
12,4,1,37,f42887_e_018,1,2.831064143,1,10,2,4
12,4,1,38,f42887_e_169,1,1.244980785,1,9,2,3
12,4,1,39,f42887_e_213,1,0.621206042,1,10,2,4
12,4,1,40,f42887_e_003,1,1.570841902,1,9,1,3
12,4,1,41,f42887_e_171,1,5.24121342,1,10,2,4
12,4,1,42,f42887_e_167,1,1.090858734,1,9,2,3
12,4,1,43,f42887_e_194,1,9.680700438,1,9,2,3
12,4,1,44,f42887_e_081,1,2.110300494,1,10,2,4
12,4,1,45,f42887_e_044,1,2.001142993,1,10,1,4
12,4,1,46,f42887_e_294,1,1.690990171,1,10,1,4
12,4,1,47,f42887_e_048,1,0.950907303,1,10,1,4
12,4,1,48,f42887_e_160,1,1.830879709,1,9,1,3
12,4,1,49,f42887_e_177,1,0.941008832,0,9,1,4
12,4,1,50,f42887_e_030,1,1.131053817,1,9,2,3
12,4,1,51,f42887_e_161,1,0.980783418,1,10,1,4
12,4,1,52,f42887_e_186,1,0.980918089,1,9,2,3
12,4,1,53,f42887_e_256,1,0.971084932,1,10,1,4
12,4,1,54,f42887_e_159,1,1.290655079,1,9,1,3
12,4,1,55,f42887_e_117,1,1.270653487,1,10,2,4
12,4,1,56,f42887_e_296,1,0.980364165,0,9,2,4
12,4,1,57,f42887_e_082,1,1.060120787,1,9,2,3
12,4,1,58,f42887_e_146,1,0.570560741,1,9,2,3
12,4,1,59,f42887_e_041,1,1.810604732,1,10,2,4
12,4,1,60,f42887_e_204,1,3.730683892,1,10,1,4
12,4,1,61,f42887_e_150,1,3.650175539,1,9,1,3
12,4,1,62,f42887_e_034,1,1.770663751,1,9,2,3
12,4,1,63,f42887_e_280,1,1.640465234,1,10,1,4
12,4,1,64,f42887_e_183,1,2.010254587,1,10,2,4
12,4,1,65,f42887_e_286,1,1.759946368,1,10,2,4
12,4,1,66,f42887_e_137,1,0.800076448,1,9,2,3
12,4,1,67,f42887_e_247,1,0.869793086,1,10,2,4
12,4,1,68,f42887_e_230,1,0.750234819,1,9,2,3
12,4,1,69,f42887_e_255,1,3.060155621,1,10,2,4
12,4,1,70,f42887_e_110,1,10.00950317,-1,9,1,0
12,4,1,71,f42887_e_023,1,4.930122566,1,9,2,3
12,4,1,72,f42887_e_118,1,1.120115301,1,10,2,4
12,4,1,73,f42887_e_187,1,0.939816076,1,9,1,3
12,4,1,74,f42887_e_158,1,1.599817308,1,10,1,4
12,4,1,75,f42887_e_250,1,1.538847129,1,10,1,4
12,4,1,76,f42887_e_022,1,0.759421369,1,10,1,4
12,4,1,77,f42887_e_201,1,1.450302372,1,10,2,4
12,4,1,78,f42887_e_031,1,0.560026238,1,10,2,4
12,4,1,79,f42887_e_060,1,0.796224175,1,9,2,3
12,4,1,80,f42887_e_121,1,1.899873229,1,10,1,4
12,4,1,81,f42887_e_282,1,1.669804842,1,10,1,4
12,4,1,82,f42887_e_000,1,0.738206183,1,9,1,3
12,4,1,83,f42887_e_046,1,1.349547966,1,9,2,3
12,4,1,84,f42887_e_079,1,0.939384072,1,9,1,3
12,4,1,85,f42887_e_209,1,1.079541086,1,10,1,4
12,4,1,86,f42887_e_184,1,1.129552843,1,9,2,3
12,4,1,87,f42887_e_076,1,0.679522923,1,10,2,4
12,4,1,88,f42887_e_010,1,1.100135791,1,9,1,3
12,4,1,89,f42887_e_273,1,1.079538598,1,10,2,4
12,4,1,90,f42887_e_075,1,0.909696745,1,9,1,3
12,4,1,91,f42887_e_193,1,1.279701012,1,10,2,4
12,4,1,92,f42887_e_106,1,1.579595203,1,10,1,4
12,4,1,93,f42887_e_268,1,2.019241463,1,10,2,4
12,4,1,94,f42887_e_289,1,1.009126213,1,10,2,4
12,4,1,95,f42887_e_168,1,1.189705043,0,10,1,3
12,4,1,96,f42887_e_064,1,1.119478646,1,9,1,3
12,4,1,97,f42887_e_129,1,2.71961226,1,9,2,3
12,4,1,98,f42887_e_126,1,2.039384258,1,10,2,4
12,4,1,99,f42887_e_298,1,0.898583747,1,9,2,3
12,4,1,100,f42887_e_162,1,1.309267042,1,10,1,4
12,4,1,101,f42887_e_175,1,0.739181536,1,10,1,4
12,4,1,102,f42887_e_170,1,1.467835412,1,10,2,4
12,4,1,103,f42887_e_225,1,0.718542356,1,10,2,4
12,4,1,104,f42887_e_259,1,1.068878443,1,10,1,4
12,4,1,105,f42887_e_285,1,1.429157165,1,9,2,3
12,4,1,106,f42887_e_212,1,0.808994901,1,10,2,4
12,4,1,107,f42887_e_265,1,1.1988297,1,10,1,4
12,4,1,108,f42887_e_154,1,1.868808712,1,10,2,4
12,4,1,109,f42887_e_143,1,1.009032285,1,9,2,3
12,4,1,110,f42887_e_174,1,1.038862058,1,9,1,3
12,4,1,111,f42887_e_123,1,1.249078142,1,9,2,3
12,4,1,112,f42887_e_013,1,1.338973963,1,10,1,4
12,4,1,113,f42887_e_277,1,3.828628869,1,9,1,3
12,4,1,114,f42887_e_227,1,3.038679491,1,9,1,3
12,4,1,115,f42887_e_278,1,2.588825296,1,9,2,3
12,4,1,116,f42887_e_014,1,1.598702618,1,10,1,4
12,4,1,117,f42887_e_127,1,1.098934638,1,10,1,4
12,4,1,118,f42887_e_197,1,2.668595914,1,9,2,3
12,4,1,119,f42887_e_226,1,2.628004904,1,9,1,3
12,4,1,120,f42887_e_017,1,1.318771452,1,10,1,4
12,4,1,121,f42887_e_104,1,4.838172468,1,10,2,4
12,4,1,122,f42887_e_260,1,1.148819188,1,9,2,3
12,4,1,123,f42887_e_258,1,2.558024212,1,10,2,4
12,4,1,124,f42887_e_253,1,1.758361107,1,10,1,4
12,4,1,125,f42887_e_237,1,1.098789081,1,10,2,4
12,4,1,126,f42887_e_172,1,1.178312128,1,9,1,3
12,4,1,127,f42887_e_231,1,1.608774326,1,9,1,3
12,4,1,128,f42887_e_059,1,1.358762197,1,9,1,3
12,4,1,129,f42887_e_173,1,3.568229347,1,9,1,3
12,4,1,130,f42887_e_083,1,2.488107901,1,10,2,4
12,4,1,131,f42887_e_179,1,7.90823247,1,9,1,3
12,4,1,132,f42887_e_195,1,1.228306157,1,9,1,3
12,4,1,133,f42887_e_261,1,1.507650741,1,9,2,3
12,4,1,134,f42887_e_074,1,1.888064172,1,10,2,4
12,4,1,135,f42887_e_135,1,2.687653254,1,10,1,4
12,4,1,136,f42887_e_073,1,2.997972471,1,10,2,4
12,4,1,137,f42887_e_111,1,2.017923368,1,10,2,4
12,4,1,138,f42887_e_091,1,2.257771416,1,9,2,3
12,4,1,139,f42887_e_090,1,5.457769924,1,10,1,4
12,4,1,140,f42887_e_199,1,2.137744756,1,9,2,3
12,4,1,141,f42887_e_218,1,2.408052701,1,10,1,4
12,4,1,142,f42887_e_271,1,1.077953959,1,10,2,4
12,4,1,143,f42887_e_210,1,0.718081427,1,9,2,3
12,4,1,144,f42887_e_202,1,1.128008325,1,10,1,4
12,4,1,145,f42887_e_005,1,0.818326385,1,9,1,3
12,4,1,146,f42887_e_252,1,1.208127906,1,10,2,4
12,4,1,147,f42887_e_284,1,1.138049243,1,10,1,4
12,4,1,148,f42887_e_101,1,0.767270229,1,9,1,3
12,4,1,149,f42887_e_188,1,0.598104219,1,10,1,4
12,4,1,150,f42887_e_166,1,1.397728446,1,9,2,3
12,4,1,151,f42887_e_205,1,0.647615857,1,9,2,3
12,4,1,152,f42887_e_219,1,0.747002405,1,10,2,4
12,4,1,153,f42887_e_292,1,1.487442633,1,9,2,3
12,4,1,154,f42887_e_045,1,1.067504675,1,10,1,4
12,4,1,155,f42887_e_246,1,0.637824377,1,10,1,4
12,4,1,156,f42887_e_071,1,1.057589719,1,10,2,4
12,4,1,157,f42887_e_035,1,0.637818156,1,9,2,3
12,4,1,158,f42887_e_124,1,0.897521308,1,9,2,3
12,4,1,159,f42887_e_275,1,2.017546413,1,9,1,3
12,4,1,160,f42887_e_153,1,0.657244987,1,9,1,3
12,4,1,161,f42887_e_131,1,0.587102254,1,9,1,3
12,4,1,162,f42887_e_047,1,0.87700809,1,10,1,4
12,4,1,163,f42887_e_215,1,1.147436089,1,9,1,3
12,4,1,164,f42887_e_025,1,2.007111435,1,9,2,3
12,4,1,165,f42887_e_100,1,1.236884666,1,9,1,3
12,4,1,166,f42887_e_243,1,1.797333266,1,9,1,3
12,4,1,167,f42887_e_281,1,0.807506056,1,9,1,3
12,4,1,168,f42887_e_279,1,1.306810929,1,9,2,3
12,4,1,169,f42887_e_242,1,1.747281699,1,9,1,3
12,4,1,170,f42887_e_049,1,2.455981879,1,10,2,4
12,4,1,171,f42887_e_288,1,0.897216821,1,10,2,4
12,4,1,172,f42887_e_066,1,0.896955876,1,10,2,4
12,4,1,173,f42887_e_087,1,0.946766404,1,9,2,3
12,4,1,174,f42887_e_264,1,2.376522902,1,9,1,3
12,4,1,175,f42887_e_139,1,1.466906089,1,10,2,4
12,4,1,176,f42887_e_105,1,0.786827998,1,10,2,4
12,4,1,177,f42887_e_148,1,1.507151868,1,9,1,3
12,4,1,178,f42887_e_176,1,2.076862285,1,10,1,4
12,4,1,179,f42887_e_068,1,0.587028543,1,10,1,4
12,4,1,180,f42887_e_228,1,1.487027112,1,10,2,4
12,4,1,181,f42887_e_287,1,1.836895116,1,10,1,4
12,4,1,182,f42887_e_272,1,1.972189358,1,9,2,3
12,4,1,183,f42887_e_061,1,1.786787566,1,9,1,3
12,4,1,184,f42887_e_077,1,1.446558333,1,10,2,4
12,4,1,185,f42887_e_103,1,1.028630798,1,9,2,3
12,4,1,186,f42887_e_299,1,0.596239974,1,9,2,3
12,4,1,187,f42887_e_027,1,1.755527108,1,9,1,3
12,4,1,188,f42887_e_026,1,0.806581087,0,10,1,3
12,4,1,189,f42887_e_053,1,0.776503121,1,9,1,3
12,4,1,190,f42887_e_190,1,1.856378863,1,9,2,3
12,4,1,191,f42887_e_093,1,1.836751736,1,9,1,3
12,4,1,192,f42887_e_063,1,1.566340222,1,10,2,4
12,4,1,193,f42887_e_050,1,10.00620979,-1,10,2,0
12,4,1,194,f42887_e_120,1,1.836011202,1,9,1,3
12,4,1,195,f42887_e_042,1,1.266414306,1,9,2,3
12,4,1,196,f42887_e_222,1,0.586502922,1,9,2,3
12,4,1,197,f42887_e_136,1,1.446748676,1,10,1,4
12,4,1,198,f42887_e_270,1,1.730734277,1,10,1,4
12,4,1,199,f42887_e_109,1,1.025989318,1,10,2,4
12,4,1,200,f42887_e_132,1,1.495773571,1,10,1,4
12,4,1,201,f42887_e_037,1,0.945794161,1,10,2,4
12,4,1,202,f42887_e_058,1,0.91492994,1,9,1,3
12,4,1,203,f42887_e_036,1,1.482437725,1,10,2,4
12,4,1,204,f42887_e_019,1,0.666089106,1,10,2,4
12,4,1,205,f42887_e_276,1,1.32554761,1,10,1,4
12,4,1,206,f42887_e_216,1,0.995969202,1,9,1,3
12,4,1,207,f42887_e_051,1,0.616188694,1,10,1,4
12,4,1,208,f42887_e_004,1,1.036047031,1,9,2,3
12,4,1,209,f42887_e_196,1,0.625461085,1,10,2,4
12,4,1,210,f42887_e_108,1,0.915087004,1,9,2,3
12,4,1,211,f42887_e_097,1,0.97500283,1,10,1,4
12,4,1,212,f42887_e_029,1,0.945844857,1,10,2,4
12,4,1,213,f42887_e_240,1,1.035919824,1,9,1,3
12,4,1,214,f42887_e_155,1,0.935179725,1,9,2,3
12,4,1,215,f42887_e_098,1,0.775401805,1,10,2,4
12,4,1,216,f42887_e_002,1,0.755581536,1,9,2,3
12,4,1,217,f42887_e_283,1,0.685799896,1,10,1,4
12,4,1,218,f42887_e_072,1,0.786024638,1,9,1,3
12,4,1,219,f42887_e_008,1,0.794472208,1,9,1,3
12,4,1,220,f42887_e_251,1,1.914907236,1,9,2,3
12,4,1,221,f42887_e_189,1,0.804919627,1,10,1,4
12,4,1,222,f42887_e_032,1,0.834931657,1,10,2,4
12,4,1,223,f42887_e_214,1,0.855163714,1,10,1,4
12,4,1,224,f42887_e_128,1,0.855246445,1,10,2,4
12,4,1,225,f42887_e_182,1,2.344762015,1,10,1,4
12,4,1,226,f42887_e_238,1,0.694557862,1,10,1,4
12,4,1,227,f42887_e_086,1,2.534716494,1,9,1,3
12,4,1,228,f42887_e_234,1,0.924838053,1,9,2,3
12,4,1,229,f42887_e_263,1,0.765127001,1,9,1,3
12,4,1,230,f42887_e_024,1,0.654518911,1,10,1,4
12,4,1,231,f42887_e_152,1,0.785050839,1,9,2,3
12,4,1,232,f42887_e_164,1,0.695203537,1,9,1,3
12,4,1,233,f42887_e_080,1,0.805065183,1,9,2,3
12,4,1,234,f42887_e_056,1,0.773398535,1,9,1,3
12,4,1,235,f42887_e_113,1,0.595204594,1,10,2,4
12,4,1,236,f42887_e_012,1,0.625141669,1,10,2,4
12,4,1,237,f42887_e_020,1,0.595032601,1,9,1,3
12,4,1,238,f42887_e_223,1,0.624927066,1,10,2,4
12,4,1,239,f42887_e_085,1,0.634554951,1,9,1,3
12,4,1,240,f42887_e_257,1,0.755163527,1,9,2,3
12,4,1,241,f42887_e_039,1,0.494081631,1,10,1,4
12,4,1,242,f42887_e_157,1,0.734260915,1,9,2,3
12,4,1,243,f42887_e_089,1,0.625412255,1,10,2,4
12,4,1,244,f42887_e_001,1,0.684969166,1,9,1,3
12,4,1,245,f42887_e_115,1,0.654702411,1,9,2,3
12,4,1,246,f42887_e_266,1,0.694634995,1,9,1,3
12,4,1,247,f42887_e_107,1,0.654846102,1,9,1,3
12,4,1,248,f42887_e_119,1,0.724716693,1,9,2,3
12,4,1,249,f42887_e_021,1,0.724742197,1,10,2,4
12,4,1,250,f42887_e_192,1,0.974794448,1,9,2,3
12,4,1,251,f42887_e_055,1,1.434567952,1,9,2,3
12,4,1,252,f42887_e_007,1,0.604622542,1,9,2,3
12,4,1,253,f42887_e_245,1,0.674761542,1,10,1,4
12,4,1,254,f42887_e_011,1,0.52407811,1,10,1,4
12,4,1,255,f42887_e_052,1,0.724659155,1,10,2,4
12,4,1,256,f42887_e_180,1,0.814338507,1,10,1,4
12,4,1,257,f42887_e_112,1,0.924445859,1,9,1,3
12,4,1,258,f42887_e_221,1,1.25448022,0,9,2,4
12,4,1,259,f42887_e_122,1,1.074321265,1,9,1,3
12,4,1,260,f42887_e_206,1,0.953949996,1,9,1,3
12,4,1,261,f42887_e_145,1,1.644278319,1,10,2,4
12,4,1,262,f42887_e_254,1,1.21408764,1,9,2,3
12,4,1,263,f42887_e_033,1,2.124273928,1,9,1,3
12,4,1,264,f42887_e_249,1,0.663811518,1,10,1,4
12,4,1,265,f42887_e_062,1,0.573977278,1,10,1,4
12,4,1,266,f42887_e_095,1,0.643919404,1,9,2,3
12,4,1,267,f42887_e_233,1,0.533420481,1,10,1,4
12,4,1,268,f42887_e_291,1,0.453852958,1,10,1,4
12,4,1,269,f42887_e_088,1,0.453687496,0,10,2,3
12,4,1,270,f42887_e_217,1,0.513928958,1,10,1,4
12,4,1,271,f42887_e_274,1,0.533971294,1,9,2,3
12,4,1,272,f42887_e_016,1,0.494011652,1,9,1,3
12,4,1,273,f42887_e_084,1,0.623884222,1,9,2,3
12,4,1,274,f42887_e_043,1,0.483971978,1,9,1,3
12,4,1,275,f42887_e_211,1,0.572694327,1,9,1,3
12,4,1,276,f42887_e_239,1,0.523298387,1,9,2,3
12,4,1,277,f42887_e_006,1,0.573517282,1,9,2,3
12,4,1,278,f42887_e_102,1,0.513491045,1,9,1,3
12,4,1,279,f42887_e_224,1,0.443639425,0,10,1,3
12,4,1,280,f42887_e_114,1,0.803360802,1,10,2,4
12,4,1,281,f42887_e_138,1,0.533538046,1,10,1,4
12,4,1,282,f42887_e_207,1,0.733407791,1,9,2,3
12,4,1,283,f42887_e_185,1,0.58370189,1,9,2,3
12,4,1,284,f42887_e_220,1,0.73305323,1,10,2,4
12,4,1,285,f42887_e_057,1,0.713551444,0,10,2,3
12,4,1,286,f42887_e_149,1,1.183121405,1,9,2,3
12,4,1,287,f42887_e_140,1,8.203152234,1,10,1,4
12,4,1,288,f42887_e_267,1,0.512630768,1,9,2,3
12,4,1,289,f42887_e_078,1,0.562965361,1,9,2,3
12,4,1,290,f42887_e_297,1,0.54346793,1,9,1,3
12,4,1,291,f42887_e_208,1,0.643592835,1,9,2,3
12,4,1,292,f42887_e_094,1,0.443282687,1,10,2,4
12,4,1,293,f42887_e_235,1,0.453626537,1,10,2,4
12,4,1,294,f42887_e_178,1,0.373059712,1,10,2,4
12,4,1,295,f42887_e_165,1,0.752978934,1,10,1,4
12,4,1,296,f42887_e_151,1,0.403484774,1,10,2,4
12,4,1,297,f42887_e_198,1,0.452956914,1,10,2,4
12,4,1,298,f42887_e_232,1,0.792272686,1,10,1,4
12,4,1,299,f42887_e_163,1,0.662836475,1,9,2,3
12,4,1,300,f42887_e_241,1,0.553249147,0,10,1,3
12,4,2,301,f42887_e_129,1,0.783147718,1,9,1,3
12,4,2,302,f42887_e_183,1,0.732684673,1,9,2,3
12,4,2,303,f42887_e_004,1,0.61274883,1,9,1,3
12,4,2,304,f42887_e_101,1,0.674754389,1,10,2,4
12,4,2,305,f42887_e_260,1,0.642428693,1,9,1,3
12,4,2,306,f42887_e_019,1,1.012103592,1,9,2,3
12,4,2,307,f42887_e_210,1,1.432660165,1,9,1,3
12,4,2,308,f42887_e_163,1,0.636317804,1,10,1,4
12,4,2,309,f42887_e_025,1,0.502700884,1,10,2,4
12,4,2,310,f42887_e_024,1,0.542025115,1,9,1,3
12,4,2,311,f42887_e_049,1,1.412924493,1,9,1,3
12,4,2,312,f42887_e_240,1,1.222437551,1,10,2,4
12,4,2,313,f42887_e_169,1,0.77263654,1,10,2,4
12,4,2,314,f42887_e_001,1,0.471834175,1,10,2,4
12,4,2,315,f42887_e_273,1,1.31290378,1,9,2,3
12,4,2,316,f42887_e_283,1,1.661725829,0,10,1,3
12,4,2,317,f42887_e_103,1,0.482457319,1,9,1,3
12,4,2,318,f42887_e_062,1,0.532765165,1,10,2,4
12,4,2,319,f42887_e_211,1,0.441849825,1,10,2,4
12,4,2,320,f42887_e_017,1,0.422790619,1,10,2,4
12,4,2,321,f42887_e_195,1,0.542031025,1,9,1,3
12,4,2,322,f42887_e_071,1,0.43238367,1,10,2,4
12,4,2,323,f42887_e_257,1,0.462292442,1,10,1,4
12,4,2,324,f42887_e_245,1,0.462295241,1,10,2,4
12,4,2,325,f42887_e_276,1,0.781874097,1,9,1,3
12,4,2,326,f42887_e_208,1,0.502026285,1,10,2,4
12,4,2,327,f42887_e_100,1,0.571893455,1,10,1,4
12,4,2,328,f42887_e_000,1,0.632384976,1,9,2,3
12,4,2,329,f42887_e_109,1,0.53187192,1,10,2,4
12,4,2,330,f42887_e_299,1,0.592135465,1,10,1,4
12,4,2,331,f42887_e_081,1,0.672028313,1,9,1,3
12,4,2,332,f42887_e_020,1,0.89229029,1,9,2,3
12,4,2,333,f42887_e_150,1,0.678517089,1,9,2,3
12,4,2,334,f42887_e_118,1,1.602116045,1,10,1,4
12,4,2,335,f42887_e_230,1,0.740687176,1,9,1,3
12,4,2,336,f42887_e_132,1,0.972087033,1,10,2,4
12,4,2,337,f42887_e_061,1,0.551887508,1,10,2,4
12,4,2,338,f42887_e_246,1,1.491693321,1,9,2,3
12,4,2,339,f42887_e_187,1,0.531668825,1,9,2,3
12,4,2,340,f42887_e_233,1,0.831371118,1,10,1,4
12,4,2,341,f42887_e_192,1,0.490359363,1,10,1,4
12,4,2,342,f42887_e_155,1,0.491528481,1,10,1,4
12,4,2,343,f42887_e_018,1,1.13124105,1,9,2,3
12,4,2,344,f42887_e_070,1,0.551756259,1,9,2,3
12,4,2,345,f42887_e_258,1,0.52128361,1,9,2,3
12,4,2,346,f42887_e_107,1,0.441974544,1,10,1,4
12,4,2,347,f42887_e_216,1,0.55944992,1,10,1,4
12,4,2,348,f42887_e_122,1,0.561209351,1,10,1,4
12,4,2,349,f42887_e_179,1,0.991697364,1,10,1,4
12,4,2,350,f42887_e_021,1,1.111543323,1,10,1,4
12,4,2,351,f42887_e_016,1,0.751241585,1,10,1,4
12,4,2,352,f42887_e_291,1,4.480895074,1,9,2,3
12,4,2,353,f42887_e_237,1,0.541969132,1,10,2,4
12,4,2,354,f42887_e_052,1,0.591584029,1,10,2,4
12,4,2,355,f42887_e_117,1,0.451153629,1,9,2,3
12,4,2,356,f42887_e_039,1,0.421438933,1,10,2,4
12,4,2,357,f42887_e_185,1,0.590983764,0,10,1,3
12,4,2,358,f42887_e_223,1,0.490814694,1,10,2,4
12,4,2,359,f42887_e_096,1,0.721544306,1,9,2,3
12,4,2,360,f42887_e_143,1,0.447109768,1,10,2,4
12,4,2,361,f42887_e_076,1,0.680877097,1,9,1,3
12,4,2,362,f42887_e_292,1,0.710690075,1,9,1,3
12,4,2,363,f42887_e_105,1,0.771199635,1,10,2,4
12,4,2,364,f42887_e_095,1,0.770749903,1,10,2,4
12,4,2,365,f42887_e_137,1,0.591319663,1,9,2,3
12,4,2,366,f42887_e_170,1,0.601938764,1,9,1,3
12,4,2,367,f42887_e_284,1,0.371015077,1,9,1,3
12,4,2,368,f42887_e_280,1,0.381114777,1,9,1,3
12,4,2,369,f42887_e_038,1,0.470931911,1,10,2,4
12,4,2,370,f42887_e_153,1,0.591115946,1,9,1,3
12,4,2,371,f42887_e_178,1,0.420599805,0,10,1,3
12,4,2,372,f42887_e_124,1,0.510767146,1,10,2,4
12,4,2,373,f42887_e_156,1,0.60098767,1,9,2,3
12,4,2,374,f42887_e_097,1,2.690286336,1,9,1,3
12,4,2,375,f42887_e_232,1,0.659911969,1,10,1,4
