Subject,Block,Trial,Stimulus,Group,RT,Acc,Location,Eye,Response
11,1,1,f42887_e_171,1,0.823712049,1,9,1,3
11,1,2,f42887_e_272,1,1.957168565,1,10,2,4
11,1,3,f42887_e_226,1,0.640328964,1,9,1,3
11,1,4,f42887_e_241,1,0.534453373,1,9,1,3
11,1,5,f42887_e_148,1,0.628698642,0,10,1,3
11,1,6,f42887_e_218,1,0.840204435,1,9,1,3
11,1,7,f42887_e_030,1,2.063528403,1,10,2,4
11,1,8,f42887_e_277,1,1.086394373,1,10,2,4
11,1,9,f42887_e_110,1,0.651473485,1,10,2,4
11,1,10,f42887_e_175,1,2.357686463,1,10,1,4
11,1,11,f42887_e_046,1,1.815923668,1,10,2,4
11,1,12,f42887_e_083,1,1.357791896,1,10,1,4
11,1,13,f42887_e_152,1,1.49801014,1,9,2,3
11,1,14,f42887_e_156,1,0.804091186,1,10,2,4
11,1,15,f42887_e_109,1,1.286211373,1,9,1,3
11,1,16,f42887_e_193,1,0.721314203,1,9,1,3
11,1,17,f42887_e_131,1,1.368681387,1,10,2,4
11,1,18,f42887_e_061,1,1.156927094,0,9,2,4
11,1,19,f42887_e_153,1,0.815832852,1,10,2,4
11,1,20,f42887_e_151,1,0.792087337,1,9,2,3
11,1,21,f42887_e_099,1,0.768996505,1,9,2,3
11,1,22,f42887_e_182,1,1.697577086,1,10,1,4
11,1,23,f42887_e_275,1,1.638955532,1,9,2,3
11,1,24,f42887_e_031,1,1.098187977,1,10,1,4
11,1,25,f42887_e_066,1,1.239359475,1,9,2,3
11,1,26,f42887_e_076,1,0.745149289,1,10,2,4
11,1,27,f42887_e_245,1,0.756166295,1,10,2,4
11,1,28,f42887_e_025,1,1.356531362,1,9,1,3
11,1,29,f42887_e_043,1,1.509690225,1,9,2,3
11,1,30,f42887_e_228,1,0.92127458,1,10,2,4
11,1,31,f42887_e_165,1,0.792022336,0,9,2,4
11,1,32,f42887_e_147,1,1.050968774,1,9,1,3
11,1,33,f42887_e_159,1,1.014950073,1,9,2,3
11,1,34,f42887_e_104,1,0.873990375,1,10,2,4
11,1,35,f42887_e_060,1,1.215276201,1,9,1,3
11,1,36,f42887_e_029,1,1.168310473,1,9,2,3
11,1,37,f42887_e_285,1,0.768166101,1,10,2,4
11,1,38,f42887_e_273,1,0.579230816,1,10,2,4
11,1,39,f42887_e_097,1,1.16789185,1,9,1,3
11,1,40,f42887_e_270,1,0.944280817,1,10,1,4
11,1,41,f42887_e_290,1,1.215025525,1,9,2,3
11,1,42,f42887_e_018,1,1.22710495,1,10,1,4
11,1,43,f42887_e_223,1,1.050720586,1,10,1,4
11,1,44,f42887_e_114,1,1.509284042,1,9,2,3
11,1,45,f42887_e_224,1,1.085405663,1,10,1,4
11,1,46,f42887_e_001,1,1.908941991,1,10,1,4
11,1,47,f42887_e_120,1,1.20302914,1,10,2,4
11,1,48,f42887_e_091,1,0.944107272,1,10,2,4
11,1,49,f42887_e_146,1,0.838477381,1,9,2,3
11,1,50,f42887_e_069,1,0.721067259,1,10,2,4
11,1,51,f42887_e_222,1,0.603530866,1,10,2,4
11,1,52,f42887_e_202,1,1.097040029,1,10,1,4
11,1,53,f42887_e_113,1,0.955465459,1,9,2,3
11,1,54,f42887_e_186,1,0.790960538,1,9,2,3
11,1,55,f42887_e_254,1,0.814790648,1,10,2,4
11,1,56,f42887_e_087,1,0.756110312,1,9,2,3
11,1,57,f42887_e_221,1,1.250133269,1,9,1,3
11,1,58,f42887_e_162,1,1.379246802,1,9,2,3
11,1,59,f42887_e_024,1,0.638272237,1,10,2,4
11,1,60,f42887_e_026,1,1.08537083,1,10,1,4
11,1,61,f42887_e_133,1,1.920341542,1,10,1,4
11,1,62,f42887_e_268,1,1.497224833,1,10,1,4
11,1,63,f42887_e_173,1,1.2267364,1,9,1,3
11,1,64,f42887_e_296,1,2.744614658,1,9,2,3
11,1,65,f42887_e_256,1,1.167599187,1,9,2,3
11,1,66,f42887_e_286,1,0.814525043,1,10,2,4
11,1,67,f42887_e_207,1,1.567733606,0,9,1,4
11,1,68,f42887_e_215,1,1.284798131,0,10,2,3
11,1,69,f42887_e_269,1,0.814141875,1,10,2,4
11,1,70,f42887_e_216,1,0.602675892,1,10,2,4
11,1,71,f42887_e_284,1,1.096913136,1,10,1,4
11,1,72,f42887_e_201,1,1.354699496,1,9,1,3
11,1,73,f42887_e_240,1,1.672769774,1,10,2,4
11,1,74,f42887_e_038,1,1.061666991,1,10,1,4
11,1,75,f42887_e_267,1,0.967619527,1,10,2,4
11,1,76,f42887_e_127,1,0.978165037,1,10,1,4
11,1,77,f42887_e_103,1,1.201922246,1,10,1,4
11,1,78,f42887_e_027,1,1.367059766,1,10,1,4
11,1,79,f42887_e_236,1,1.060647802,1,10,2,4
11,1,80,f42887_e_279,1,1.013525946,1,10,1,4
11,1,81,f42887_e_174,1,1.059946468,1,10,2,4
11,1,82,f42887_e_179,1,0.684485936,1,10,2,4
11,1,83,f42887_e_217,1,0.849003608,1,9,2,3
11,1,84,f42887_e_264,1,1.025706139,1,10,1,4
11,1,85,f42887_e_141,1,1.095599729,1,9,2,3
11,1,86,f42887_e_239,1,0.966764553,1,10,1,4
11,1,87,f42887_e_149,1,0.731478101,1,10,1,4
11,1,88,f42887_e_259,1,1.084249007,1,10,2,4
11,1,89,f42887_e_242,1,1.119702597,1,9,1,3
11,1,90,f42887_e_204,1,1.260374609,0,9,2,4
11,1,91,f42887_e_050,1,1.261002232,1,9,1,3
11,1,92,f42887_e_278,1,0.942860422,1,10,2,4
11,1,93,f42887_e_138,1,1.177777391,1,9,1,3
11,1,94,f42887_e_238,1,0.801435759,1,9,1,3
11,1,95,f42887_e_205,1,0.918961267,1,9,2,3
11,1,96,f42887_e_023,1,0.589983771,1,10,2,4
11,1,97,f42887_e_203,1,1.107378716,1,10,1,4
11,1,98,f42887_e_035,1,0.695626103,1,10,1,4
11,1,99,f42887_e_074,1,1.237183941,1,10,2,4
11,1,100,f42887_e_258,1,1.037184687,1,9,1,3
11,1,101,f42887_e_088,1,1.286186492,1,9,2,3
11,1,102,f42887_e_003,1,1.871364494,1,10,1,4
11,1,103,f42887_e_098,1,1.071802587,1,10,2,4
11,1,104,f42887_e_036,1,1.024820375,1,10,1,4
11,1,105,f42887_e_248,1,1.130735775,1,10,1,4
11,1,106,f42887_e_250,1,0.613293868,1,9,1,3
11,1,107,f42887_e_161,1,0.63651035,1,10,1,4
11,1,108,f42887_e_194,1,0.919287831,1,9,2,3
11,1,109,f42887_e_253,1,0.612954864,1,10,2,4
11,1,110,f42887_e_124,1,1.177108713,1,9,1,3
11,1,111,f42887_e_053,1,1.200978011,1,10,2,4
11,1,112,f42887_e_096,1,1.106583456,0,10,1,3
11,1,113,f42887_e_168,1,0.589026163,1,9,1,3
11,1,114,f42887_e_135,1,0.671667856,1,10,1,4
11,1,115,f42887_e_077,1,0.530648132,1,9,1,3
11,1,116,f42887_e_008,1,0.695369206,1,10,1,4
11,1,117,f42887_e_017,1,0.566026146,1,10,1,4
11,1,118,f42887_e_122,1,1.094848011,1,9,2,3
11,1,119,f42887_e_028,1,1.424842519,1,9,1,3
11,1,120,f42887_e_261,1,1.459957105,1,10,1,4
11,1,121,f42887_e_177,1,0.907104216,1,9,2,3
11,1,122,f42887_e_034,1,1.118855398,1,9,1,3
11,1,123,f42887_e_225,1,1.271443553,1,10,1,4
11,1,124,f42887_e_181,1,1.212950448,1,10,2,4
11,1,125,f42887_e_158,1,2.577627545,1,9,1,3
11,1,126,f42887_e_079,1,2.024504697,1,9,2,3
11,1,127,f42887_e_237,1,1.153496312,1,10,2,4
11,1,128,f42887_e_019,1,1.400451653,1,9,1,3
11,1,129,f42887_e_214,1,1.071713326,1,9,2,3
11,1,130,f42887_e_251,1,0.953805583,1,10,2,4
11,1,131,f42887_e_033,1,1.022495243,1,9,2,3
11,1,132,f42887_e_232,1,1.28216603,1,10,1,4
11,1,133,f42887_e_211,1,1.200471993,1,9,1,3
11,1,134,f42887_e_048,1,0.788506025,1,9,1,3
11,1,135,f42887_e_183,1,0.834858747,1,10,1,4
11,1,136,f42887_e_145,1,0.729561329,1,10,1,4
11,1,137,f42887_e_015,1,0.64701916,1,9,1,3
11,1,138,f42887_e_010,1,0.706050318,1,9,1,3
11,1,139,f42887_e_085,1,2.917443525,1,9,2,3
11,1,140,f42887_e_047,1,1.352933877,1,10,1,4
11,1,141,f42887_e_121,1,0.953443254,1,10,1,4
11,1,142,f42887_e_115,1,2.012387639,1,9,2,3
11,1,143,f42887_e_016,1,1.176650902,1,9,1,3
11,1,144,f42887_e_063,1,1.188316059,1,9,2,3
11,1,145,f42887_e_013,1,0.834869322,1,9,2,3
11,1,146,f42887_e_271,1,1.247153145,1,9,1,3
11,1,147,f42887_e_293,1,1.105717908,1,9,2,3
11,1,148,f42887_e_021,1,1.611482529,1,10,1,4
11,1,149,f42887_e_045,1,0.941163225,1,9,2,3
11,1,150,f42887_e_219,1,1.258664971,1,10,1,4
11,1,151,f42887_e_078,1,1.681136951,1,9,2,3
11,1,152,f42887_e_086,1,3.423126661,1,10,1,4
11,1,153,f42887_e_054,1,0.634643651,1,9,1,3
11,1,154,f42887_e_139,1,0.623607052,0,10,2,3
11,1,155,f42887_e_092,1,0.399550338,0,10,2,3
11,1,156,f42887_e_080,1,0.67064027,1,9,1,3
11,1,157,f42887_e_044,1,0.434672699,0,10,2,3
11,1,158,f42887_e_009,1,1.270196703,1,10,2,4
11,1,159,f42887_e_126,1,1.552033059,1,10,1,4
11,1,160,f42887_e_178,1,1.84616966,1,9,2,3
11,1,161,f42887_e_041,1,1.340129481,0,10,1,3
11,1,162,f42887_e_143,1,0.328648755,1,9,1,3
11,1,163,f42887_e_095,1,0.341057543,1,10,1,4
11,1,164,f42887_e_260,1,0.717470085,0,9,2,4
11,1,165,f42887_e_144,1,0.752426988,1,10,2,4
11,1,166,f42887_e_022,1,0.551988585,1,9,2,3
11,1,167,f42887_e_294,1,0.646336487,1,9,2,3
11,1,168,f42887_e_283,1,1.36386722,0,10,1,3
11,1,169,f42887_e_160,1,0.363846693,1,9,1,3
11,1,170,f42887_e_234,1,0.399029702,0,10,1,3
11,1,171,f42887_e_230,1,0.834314475,1,10,2,4
11,1,172,f42887_e_274,1,0.610721481,1,10,2,4
11,1,173,f42887_e_007,1,0.575646082,1,10,2,4
11,1,174,f42887_e_213,1,0.599284297,1,10,2,4
11,1,175,f42887_e_299,1,0.599104843,1,9,2,3
11,1,176,f42887_e_210,1,2.093339288,1,9,1,3
11,1,177,f42887_e_111,1,1.221547152,1,10,2,4
11,1,178,f42887_e_198,1,1.610965315,1,9,2,3
11,1,179,f42887_e_206,1,0.928622879,1,9,2,3
11,1,180,f42887_e_062,1,0.646404599,1,10,2,4
11,1,181,f42887_e_195,1,1.552247969,1,10,1,4
11,1,182,f42887_e_108,1,0.987141799,0,10,2,3
11,1,183,f42887_e_287,1,1.528122397,1,10,1,4
11,1,184,f42887_e_235,1,0.669256574,1,10,2,4
11,1,185,f42887_e_163,1,0.634697145,1,9,2,3
11,1,186,f42887_e_039,1,0.787596002,1,9,2,3
11,1,187,f42887_e_142,1,0.751931545,1,10,2,4
11,1,188,f42887_e_262,1,1.727631184,1,10,2,4
11,1,189,f42887_e_042,1,1.163537671,1,10,1,4
11,1,190,f42887_e_298,1,0.693078286,1,9,1,3
11,1,191,f42887_e_184,1,1.163244386,1,9,2,3
11,1,192,f42887_e_136,1,0.79940609,1,10,2,4
11,1,193,f42887_e_167,1,0.752139301,0,10,1,3
11,1,194,f42887_e_257,1,0.610379056,1,9,1,3
11,1,195,f42887_e_209,1,1.410449158,1,10,1,4
11,1,196,f42887_e_070,1,1.391756047,1,10,2,4
11,1,197,f42887_e_073,1,0.598672535,1,10,2,4
11,1,198,f42887_e_192,1,1.13171982,1,9,1,3
11,1,199,f42887_e_169,1,0.684175857,1,9,1,3
11,1,200,f42887_e_105,1,1.379041533,1,9,2,3
11,1,201,f42887_e_067,1,3.65450275,1,10,1,4
11,1,202,f42887_e_094,1,0.260254247,1,10,2,4
11,1,203,f42887_e_289,1,0.037010831,0,9,2,4
11,1,204,f42887_e_166,1,1.507597731,1,10,2,4
11,1,205,f42887_e_068,1,1.025304621,1,9,1,3
11,1,206,f42887_e_006,1,0.303998194,1,9,1,3
11,1,207,f42887_e_049,1,0.578090021,1,10,2,4
11,1,208,f42887_e_288,1,1.108763656,1,10,1,4
11,1,209,f42887_e_155,1,0.39037826,0,10,2,3
11,1,210,f42887_e_140,1,0.366954333,0,10,1,3
11,1,211,f42887_e_112,1,0.89177564,1,10,2,4
11,1,212,f42887_e_276,1,0.727595728,1,9,2,3
11,1,213,f42887_e_154,1,0.848035115,1,10,2,4
11,1,214,f42887_e_265,1,2.966877139,1,10,2,4
11,1,215,f42887_e_090,1,0.660504052,1,9,2,3
11,1,216,f42887_e_014,1,0.986107681,1,9,1,3
11,1,217,f42887_e_005,1,0.755103253,1,10,2,4
11,1,218,f42887_e_281,1,0.742346753,1,9,1,3
11,1,219,f42887_e_118,1,0.563310072,1,9,1,3
11,1,220,f42887_e_059,1,0.539141269,1,9,1,3
11,1,221,f42887_e_056,1,0.456647618,1,9,1,3
11,1,222,f42887_e_072,1,0.751320405,1,10,2,4
11,1,223,f42887_e_188,1,0.597911798,0,10,1,3
11,1,224,f42887_e_119,1,0.821233589,1,10,2,4
11,1,225,f42887_e_037,1,0.55090626,1,9,2,3
11,1,226,f42887_e_129,1,0.786017301,1,10,1,4
11,1,227,f42887_e_134,1,0.76234954,1,9,2,3
11,1,228,f42887_e_191,1,0.691486523,1,10,2,4
11,1,229,f42887_e_137,1,0.762403656,1,10,1,4
11,1,230,f42887_e_071,1,0.550922433,1,10,1,4
11,1,231,f42887_e_187,1,0.668706081,1,9,1,3
11,1,232,f42887_e_123,1,0.727268543,1,10,2,4
11,1,233,f42887_e_002,1,0.997312539,1,9,1,3
11,1,234,f42887_e_212,1,0.620592405,1,9,1,3
11,1,235,f42887_e_081,1,0.514872942,1,9,1,3
11,1,236,f42887_e_247,1,0.867981297,1,10,1,4
11,1,237,f42887_e_100,1,1.114588303,1,9,2,3
11,1,238,f42887_e_125,1,0.832307821,1,9,2,3
11,1,239,f42887_e_116,1,0.797315773,1,9,1,3
11,1,240,f42887_e_089,1,0.832874175,1,10,1,4
11,1,241,f42887_e_101,1,0.620523982,1,10,2,4
11,1,242,f42887_e_051,1,0.279752882,0,10,1,3
11,1,243,f42887_e_297,1,0.573533684,1,10,1,4
11,1,244,f42887_e_244,1,0.479500215,1,10,1,4
11,1,245,f42887_e_291,1,0.620960955,1,9,2,3
11,1,246,f42887_e_075,1,0.549952384,1,10,2,4
11,1,247,f42887_e_227,1,0.713983321,1,9,1,3
11,1,248,f42887_e_000,1,0.643928626,1,9,1,3
11,1,249,f42887_e_040,1,0.560971567,1,9,1,3
11,1,250,f42887_e_128,1,0.597008928,1,10,1,4
11,1,251,f42887_e_057,1,0.761553969,1,9,2,3
11,1,252,f42887_e_255,1,0.679039481,1,9,1,3
11,1,253,f42887_e_243,1,0.72632182,1,10,2,4
11,1,254,f42887_e_263,1,0.643517156,1,10,1,4
11,1,255,f42887_e_004,1,0.526240459,1,10,1,4
11,1,256,f42887_e_180,1,0.631118943,1,9,2,3
11,1,257,f42887_e_220,1,0.644004202,1,10,1,4
11,1,258,f42887_e_172,1,0.926316719,1,10,2,4
11,1,259,f42887_e_132,1,0.926078172,1,9,1,3
11,1,260,f42887_e_208,1,0.65470864,1,10,2,4
11,1,261,f42887_e_266,1,0.572631436,1,10,1,4
11,1,262,f42887_e_200,1,0.549436103,0,10,2,3
11,1,263,f42887_e_020,1,0.687671329,1,9,1,3
11,1,264,f42887_e_196,1,0.513962608,0,10,1,3
11,1,265,f42887_e_117,1,0.737859772,1,10,2,4
11,1,266,f42887_e_093,1,0.502335084,1,10,2,4
11,1,267,f42887_e_052,1,0.737730702,1,10,1,4
11,1,268,f42887_e_082,1,0.654915464,1,10,2,4
11,1,269,f42887_e_012,1,0.654499018,1,9,2,3
11,1,270,f42887_e_058,1,0.619640084,1,10,2,4
11,1,271,f42887_e_065,1,0.548794794,1,10,1,4
11,1,272,f42887_e_055,1,0.513482404,1,10,1,4
11,1,273,f42887_e_229,1,0.536661875,1,10,1,4
11,1,274,f42887_e_064,1,0.512626808,1,10,1,4
11,1,275,f42887_e_106,1,0.901468043,1,9,2,3
11,1,276,f42887_e_199,1,2.311215556,1,10,1,4
11,1,277,f42887_e_233,1,1.277713571,1,9,1,3
11,1,278,f42887_e_292,1,0.524861739,1,9,2,3
11,1,279,f42887_e_157,1,0.85490321,1,9,1,3
11,1,280,f42887_e_130,1,0.936973572,0,9,1,4
11,1,281,f42887_e_189,1,1.337595349,1,9,1,3
11,1,282,f42887_e_011,1,0.642556127,1,9,1,3
11,1,283,f42887_e_032,1,0.995898986,1,10,1,4
11,1,284,f42887_e_102,1,0.595557742,0,9,2,4
11,1,285,f42887_e_170,1,1.171930351,1,10,2,4
11,1,286,f42887_e_185,1,0.477808616,0,9,2,4
11,1,287,f42887_e_084,1,0.936219988,1,9,1,3
11,1,288,f42887_e_282,1,0.701463502,0,10,1,3
11,1,289,f42887_e_231,1,2.289128051,1,10,2,4
11,1,290,f42887_e_197,1,0.757607839,1,10,2,4
11,1,291,f42887_e_107,1,0.724812475,1,9,2,3
11,1,292,f42887_e_246,1,1.982096861,0,9,2,4
11,1,293,f42887_e_249,1,1.852630328,1,10,1,4
11,1,294,f42887_e_176,1,0.675516017,1,9,1,3
11,1,295,f42887_e_295,1,1.11342667,1,9,2,3
11,1,296,f42887_e_150,1,0.664033736,1,9,1,3
11,1,297,f42887_e_280,1,0.864252565,0,10,1,3
11,1,298,f42887_e_190,1,1.240716424,1,10,1,4
11,1,299,f42887_e_252,1,1.216779326,1,9,2,3
11,1,300,f42887_e_164,1,0.887368589,1,10,1,4
11,2,301,f42887_e_212,1,0.822857697,1,9,1,3
11,2,302,f42887_e_131,1,1.675532812,1,9,1,3
11,2,303,f42887_e_116,1,0.568384556,1,9,1,3
11,2,304,f42887_e_186,1,0.534347318,1,9,1,3
11,2,305,f42887_e_064,1,1.028716432,1,10,2,4
11,2,306,f42887_e_179,1,0.569618655,1,9,2,3
11,2,307,f42887_e_160,1,0.675801527,1,10,2,4
11,2,308,f42887_e_052,1,0.945883777,1,10,1,4
11,2,309,f42887_e_016,1,0.82770141,1,10,2,4
11,2,310,f42887_e_059,1,0.757959283,1,10,2,4
11,2,311,f42887_e_011,1,1.027547335,1,9,1,3
11,2,312,f42887_e_260,1,0.757941867,1,10,2,4
11,2,313,f42887_e_066,1,0.722374446,0,9,1,4
11,2,314,f42887_e_253,1,0.780915447,0,10,1,3
11,2,315,f42887_e_121,1,0.887163632,1,9,1,3
11,2,316,f42887_e_267,1,1.640037234,1,10,2,4
11,2,317,f42887_e_226,1,3.557937637,1,9,2,3
11,2,318,f42887_e_127,1,0.921590569,1,9,1,3
11,2,319,f42887_e_038,1,0.698699531,1,10,2,4
11,2,320,f42887_e_211,1,0.510018655,1,10,2,4
11,2,321,f42887_e_214,1,0.804696728,1,9,2,3
11,2,322,f42887_e_208,1,1.133456515,1,9,1,3
11,2,323,f42887_e_291,1,1.34591494,1,9,2,3
11,2,324,f42887_e_001,1,0.628038673,1,10,2,4
11,2,325,f42887_e_205,1,1.062928459,1,9,1,3
11,2,326,f42887_e_084,1,0.933316684,1,9,2,3
11,2,327,f42887_e_269,1,1.698406557,1,9,2,3
11,2,328,f42887_e_283,1,0.792108797,1,10,1,4
11,2,329,f42887_e_256,1,0.886712663,1,9,2,3
11,2,330,f42887_e_264,1,0.980810512,1,9,1,3
11,2,331,f42887_e_137,1,1.05069135,1,9,1,3
11,2,332,f42887_e_203,1,0.874088033,1,9,2,3
11,2,333,f42887_e_284,1,0.874043869,1,9,2,3
11,2,334,f42887_e_120,1,0.556563894,1,10,2,4
11,2,335,f42887_e_290,1,0.686555726,1,10,1,4
11,2,336,f42887_e_204,1,0.933793777,1,10,2,4
11,2,337,f42887_e_165,1,1.086064699,1,9,1,3
11,2,338,f42887_e_168,1,1.003851893,1,9,1,3
11,2,339,f42887_e_263,1,0.804094608,1,9,1,3
11,2,340,f42887_e_197,1,0.956953655,1,9,2,3
11,2,341,f42887_e_086,1,0.76847898,1,9,1,3
11,2,342,f42887_e_091,1,0.615621799,1,10,2,4
11,2,343,f42887_e_100,1,0.757125769,1,10,2,4
11,2,344,f42887_e_126,1,0.897589713,1,9,1,3
11,2,345,f42887_e_046,1,0.68612373,1,10,1,4
11,2,346,f42887_e_077,1,0.58006433,1,10,1,4
11,2,347,f42887_e_193,1,0.732726506,1,10,2,4
11,2,348,f42887_e_057,1,0.732516883,0,9,2,4
11,2,349,f42887_e_297,1,1.014435969,0,9,1,4
11,2,350,f42887_e_039,1,1.203542622,1,9,2,3
11,2,351,f42887_e_149,1,0.60317289,1,9,2,3
11,2,352,f42887_e_278,1,0.838339291,1,9,2,3
11,2,353,f42887_e_104,1,0.968216049,1,9,1,3
11,2,354,f42887_e_080,1,0.885946328,1,10,2,4
11,2,355,f42887_e_089,1,0.897924985,1,10,2,4
11,2,356,f42887_e_125,1,0.674132943,1,10,2,4
11,2,357,f42887_e_085,1,0.862127414,1,10,2,4
11,2,358,f42887_e_141,1,0.838180364,1,10,2,4
11,2,359,f42887_e_240,1,0.791250713,1,10,2,4
11,2,360,f42887_e_041,1,0.944628529,1,10,2,4
11,2,361,f42887_e_217,1,1.767958966,0,9,1,4
11,2,362,f42887_e_192,1,1.262295424,1,9,2,3
11,2,363,f42887_e_081,1,1.14395444,1,10,1,4
11,2,364,f42887_e_093,1,1.356035296,1,10,1,4
11,2,365,f42887_e_004,1,0.661253593,1,10,1,4
11,2,366,f42887_e_213,1,0.967715941,1,10,2,4
11,2,367,f42887_e_106,1,0.626389061,1,10,1,4
11,2,368,f42887_e_102,1,0.650235032,1,10,1,4
11,2,369,f42887_e_002,1,1.131729461,1,9,2,3
11,2,370,f42887_e_000,1,0.884596532,1,10,2,4
11,2,371,f42887_e_008,1,0.861421104,1,10,1,4
11,2,372,f42887_e_063,1,0.838121893,1,10,2,4
11,2,373,f42887_e_241,1,0.837593483,1,10,1,4
11,2,374,f42887_e_103,1,1.025906431,1,9,1,3
11,2,375,f42887_e_200,1,0.767396966,1,10,1,4
11,2,376,f42887_e_134,1,1.202616115,1,9,1,3
11,2,377,f42887_e_181,1,0.825515924,1,9,1,3
11,2,378,f42887_e_163,1,1.049529096,1,9,1,3
11,2,379,f42887_e_182,1,0.731854115,1,10,1,4
11,2,380,f42887_e_228,1,0.766976477,1,9,1,3
11,2,381,f42887_e_153,1,0.979190757,1,10,2,4
11,2,382,f42887_e_156,1,0.802853667,1,10,1,4
11,2,383,f42887_e_223,1,1.08464928,1,10,2,4
11,2,384,f42887_e_209,1,0.684494023,1,10,2,4
11,2,385,f42887_e_117,1,0.790729145,1,9,1,3
11,2,386,f42887_e_058,1,0.790675339,1,10,2,4
11,2,387,f42887_e_027,1,1.07353244,1,9,2,3
11,2,388,f42887_e_073,1,0.802216712,1,9,1,3
11,2,389,f42887_e_099,1,0.942911428,1,10,2,4
11,2,390,f42887_e_083,1,0.884841611,1,9,1,3
11,2,391,f42887_e_054,1,0.931725853,1,9,1,3
11,2,392,f42887_e_218,1,0.614423777,1,10,1,4
11,2,393,f42887_e_113,1,1.260899287,1,9,2,3
11,2,394,f42887_e_047,1,0.967324065,1,10,2,4
11,2,395,f42887_e_143,1,1.036986572,1,10,1,4
11,2,396,f42887_e_249,1,0.919278811,1,10,2,4
11,2,397,f42887_e_280,1,0.895730168,1,10,2,4
11,2,398,f42887_e_112,1,0.967284255,1,10,1,4
11,2,399,f42887_e_018,1,0.767004779,1,10,2,4
11,2,400,f42887_e_122,1,0.825339268,1,9,2,3
11,2,401,f42887_e_185,1,3.798415514,1,10,1,4
11,2,402,f42887_e_237,1,1.142473087,1,9,2,3
11,2,403,f42887_e_222,1,1.024382469,1,9,2,3
11,2,404,f42887_e_187,1,1.625395686,1,10,2,4
11,2,405,f42887_e_042,1,0.648900477,1,9,1,3
11,2,406,f42887_e_183,1,6.166944505,1,10,1,4
11,2,407,f42887_e_293,1,0.954168224,1,10,2,4
11,2,408,f42887_e_109,1,1.060357005,1,10,2,4
11,2,409,f42887_e_265,1,0.754351846,1,9,1,3
11,2,410,f42887_e_139,1,2.813617508,1,9,1,3
11,2,411,f42887_e_198,1,1.964956947,1,10,2,4
11,2,412,f42887_e_191,1,0.859717065,0,10,2,3
11,2,413,f42887_e_044,1,3.7779742,1,9,2,3
11,2,414,f42887_e_067,1,0.554482285,1,9,2,3
11,2,415,f42887_e_285,1,0.507353897,1,10,2,4
11,2,416,f42887_e_231,1,9.660543862,1,10,2,4
11,2,417,f42887_e_015,1,1.259135534,1,10,1,4
11,2,418,f42887_e_098,1,0.636190006,1,10,1,4
11,2,419,f42887_e_056,1,0.541931675,1,9,1,3
11,2,420,f42887_e_017,1,0.683548544,1,10,1,4
11,2,421,f42887_e_152,1,0.48337419,1,10,2,4
11,2,422,f42887_e_072,1,0.860589767,0,9,2,4
11,2,423,f42887_e_243,1,0.895550402,1,9,2,3
11,2,424,f42887_e_144,1,2.083702246,1,9,2,3
11,2,425,f42887_e_184,1,1.318957597,0,10,2,3
11,2,426,f42887_e_279,1,2.200992317,1,9,2,3
11,2,427,f42887_e_110,1,1.506955179,1,9,1,3
11,2,428,f42887_e_037,1,0.765206192,1,9,1,3
11,2,429,f42887_e_019,1,1.342119341,1,10,1,4
11,2,430,f42887_e_151,1,1.118429311,0,9,1,4
11,2,431,f42887_e_074,1,0.694986972,1,10,1,4
11,2,432,f42887_e_287,1,1.494212985,0,10,2,3
11,2,433,f42887_e_294,1,2.189072753,1,10,2,4
11,2,434,f42887_e_154,1,2.882433128,1,10,2,4
11,2,435,f42887_e_299,1,2.470921861,1,10,2,4
11,2,436,f42887_e_266,1,3.081896817,0,9,1,4
11,2,437,f42887_e_049,1,2.436199772,0,9,1,4
11,2,438,f42887_e_207,1,0.587691296,0,10,2,3
11,2,439,f42887_e_150,1,0.389097509,0,10,1,3
11,2,440,f42887_e_161,1,0.412600123,1,9,2,3
11,2,441,f42887_e_236,1,0.894358912,1,9,1,3
11,2,442,f42887_e_173,1,1.517503488,1,9,1,3
11,2,443,f42887_e_188,1,1.011862027,1,10,2,4
11,2,444,f42887_e_238,1,2.764706084,1,9,1,3
11,2,445,f42887_e_202,1,0.8116376,1,9,1,3
11,2,446,f42887_e_268,1,1.835492591,1,10,2,4
11,2,447,f42887_e_053,1,0.670937909,1,10,1,4
11,2,448,f42887_e_030,1,0.706223241,1,9,2,3
11,2,449,f42887_e_135,1,0.83589442,1,10,1,4
11,2,450,f42887_e_095,1,0.847548069,1,10,2,4
11,2,451,f42887_e_252,1,0.553200912,1,10,2,4
11,2,452,f42887_e_040,1,0.741275003,1,9,1,3
11,2,453,f42887_e_235,1,0.659024253,1,10,2,4
11,2,454,f42887_e_005,1,0.647588314,1,10,1,4
11,2,455,f42887_e_175,1,0.600391814,1,10,1,4
11,2,456,f42887_e_250,1,0.635475921,1,10,2,4
11,2,457,f42887_e_227,1,0.506379183,1,10,2,4
11,2,458,f42887_e_006,1,1.011982078,1,9,1,3
11,2,459,f42887_e_295,1,0.682348968,1,9,1,3
11,2,460,f42887_e_062,1,1.022807189,1,9,2,3
11,2,461,f42887_e_111,1,0.682577562,1,9,1,3
11,2,462,f42887_e_092,1,0.729321538,1,9,2,3
11,2,463,f42887_e_201,1,0.517077712,1,9,2,3
11,2,464,f42887_e_190,1,0.494068053,1,9,2,3
11,2,465,f42887_e_031,1,0.834887983,1,9,1,3
11,2,466,f42887_e_244,1,0.682550815,1,10,1,4
11,2,467,f42887_e_107,1,0.564540127,1,10,1,4
11,2,468,f42887_e_029,1,1.258673369,0,9,1,4
11,2,469,f42887_e_276,1,0.870315448,1,10,2,4
11,2,470,f42887_e_088,1,0.658180787,1,10,1,4
11,2,471,f42887_e_162,1,1.011113731,1,10,1,4
11,2,472,f42887_e_070,1,0.811433887,1,10,1,4
11,2,473,f42887_e_167,1,1.116999585,1,9,2,3
11,2,474,f42887_e_262,1,0.964307863,1,9,2,3
11,2,475,f42887_e_159,1,0.775676437,1,10,1,4
11,2,476,f42887_e_274,1,1.704862249,1,9,2,3
11,2,477,f42887_e_246,1,0.775848738,1,10,1,4
11,2,478,f42887_e_189,1,0.752099492,1,10,1,4
11,2,479,f42887_e_194,1,1.175890787,1,9,1,3
11,2,480,f42887_e_129,1,0.811089596,1,10,2,4
11,2,481,f42887_e_298,1,0.834073751,1,10,1,4
11,2,482,f42887_e_296,1,0.693451502,1,10,1,4
11,2,483,f42887_e_094,1,0.881705047,1,9,2,3
11,2,484,f42887_e_010,1,0.822795184,0,10,1,3
11,2,485,f42887_e_142,1,0.764187936,1,9,2,3
11,2,486,f42887_e_216,1,0.658211266,1,9,1,3
11,2,487,f42887_e_115,1,0.716598316,1,9,2,3
11,2,488,f42887_e_035,1,0.704692125,1,10,2,4
11,2,489,f42887_e_036,1,0.799047803,1,9,1,3
11,2,490,f42887_e_196,1,0.704348767,1,9,2,3
11,2,491,f42887_e_292,1,0.622372331,1,9,2,3
11,2,492,f42887_e_119,1,0.68153909,1,10,1,4
11,2,493,f42887_e_048,1,0.72829333,1,9,1,3
11,2,494,f42887_e_271,1,0.633508143,1,9,2,3
11,2,495,f42887_e_145,1,0.75187774,1,10,1,4
11,2,496,f42887_e_130,1,0.775596818,1,10,2,4
11,2,497,f42887_e_147,1,0.728764203,1,9,2,3
11,2,498,f42887_e_082,1,0.716676381,1,9,1,3
11,2,499,f42887_e_195,1,0.668998744,1,10,1,4
11,2,500,f42887_e_199,1,0.78733755,1,9,2,3
11,2,501,f42887_e_224,1,1.798676454,1,9,2,3
11,2,502,f42887_e_176,1,0.657413207,1,10,2,4
11,2,503,f42887_e_225,1,0.739444693,1,9,2,3
11,2,504,f42887_e_254,1,0.598678133,1,10,2,4
11,2,505,f42887_e_172,1,0.563228897,0,10,1,3
11,2,506,f42887_e_114,1,0.515851388,0,10,1,3
11,2,507,f42887_e_014,1,0.527687912,1,10,1,4
11,2,508,f42887_e_090,1,0.856839264,1,9,1,3
11,2,509,f42887_e_155,1,1.9159771,1,10,2,4
11,2,510,f42887_e_071,1,0.609544609,1,9,1,3
11,2,511,f42887_e_171,1,0.810438335,1,9,1,3
11,2,512,f42887_e_245,1,0.645335337,1,10,2,4
11,2,513,f42887_e_026,1,0.492247074,1,10,2,4
11,2,514,f42887_e_060,1,0.598558394,1,10,2,4
11,2,515,f42887_e_219,1,0.680562199,1,10,2,4
11,2,516,f42887_e_229,1,0.621636786,1,9,2,3
11,2,517,f42887_e_210,1,0.821517543,1,10,1,4
11,2,518,f42887_e_272,1,0.645253541,1,10,1,4
11,2,519,f42887_e_248,1,0.998288186,1,9,2,3
11,2,520,f42887_e_076,1,0.822094783,1,9,2,3
11,2,521,f42887_e_079,1,0.680876011,1,10,2,4
11,2,522,f42887_e_051,1,1.421509084,1,9,1,3
11,2,523,f42887_e_025,1,1.233475425,0,10,2,3
11,2,524,f42887_e_028,1,0.668091209,1,9,1,3
11,2,525,f42887_e_045,1,1.692374775,1,10,2,4
11,2,526,f42887_e_270,1,0.727184258,1,10,2,4
11,2,527,f42887_e_013,1,0.809408261,1,10,2,4
11,2,528,f42887_e_007,1,2.715541495,0,9,2,4
11,2,529,f42887_e_170,1,0.692051944,0,9,2,4
11,2,530,f42887_e_146,1,10.00990762,-1,10,2,0
11,2,531,f42887_e_169,1,0.000929306,1,9,2,3
11,2,532,f42887_e_101,1,2.196412032,0,9,2,4
11,2,533,f42887_e_289,1,7.197525147,1,10,2,4
11,2,534,f42887_e_166,1,0.361863987,1,10,1,4
11,2,535,f42887_e_023,1,0.891533983,0,10,2,3
11,2,536,f42887_e_105,1,6.726793937,1,9,1,3
11,2,537,f42887_e_255,1,3.360726613,1,9,2,3
11,2,538,f42887_e_128,1,1.056331567,1,9,2,3
11,2,539,f42887_e_108,1,0.491265206,0,10,1,3
11,2,540,f42887_e_020,1,2.444221414,1,9,1,3
11,2,541,f42887_e_124,1,2.267354357,1,9,1,3
11,2,542,f42887_e_261,1,1.514623821,0,10,2,3
11,2,543,f42887_e_233,1,0.844653473,1,9,2,3
11,2,544,f42887_e_061,1,3.903398499,1,9,1,3
11,2,545,f42887_e_234,1,1.055002609,0,10,1,3
11,2,546,f42887_e_273,1,3.985622812,1,9,2,3
11,2,547,f42887_e_277,1,1.514256515,0,10,1,3
11,2,548,f42887_e_087,1,1.421059981,1,9,2,3
11,2,549,f42887_e_012,1,0.055904857,1,9,1,3
11,2,550,f42887_e_065,1,2.726400817,1,9,1,3
11,2,551,f42887_e_247,1,1.443923775,1,9,1,3
11,2,552,f42887_e_138,1,0.808345841,1,9,1,3
11,2,553,f42887_e_242,1,1.208340616,0,10,1,3
11,2,554,f42887_e_177,1,1.091081957,0,9,1,4
11,2,555,f42887_e_286,1,0.82017148,0,9,1,4
11,2,556,f42887_e_003,1,0.691692724,1,10,2,4
11,2,557,f42887_e_022,1,2.05583208,1,9,2,3
11,2,558,f42887_e_078,1,1.102648523,1,9,1,3
11,2,559,f42887_e_009,1,2.196965635,1,9,2,3
11,2,560,f42887_e_257,1,6.549645725,1,9,1,3
11,2,561,f42887_e_174,1,1.866853876,1,9,1,3
11,2,562,f42887_e_288,1,1.067890357,1,9,2,3
11,2,563,f42887_e_158,1,5.267176769,0,10,1,3
11,2,564,f42887_e_032,1,0.984150167,0,9,2,4
11,2,565,f42887_e_206,1,2.408356975,1,9,1,3
11,2,566,f42887_e_180,1,0.902106552,1,10,1,4
11,2,567,f42887_e_258,1,2.973242327,1,10,2,4
11,2,568,f42887_e_132,1,1.372175926,1,10,2,4
11,2,569,f42887_e_230,1,1.973058829,1,9,1,3
11,2,570,f42887_e_275,1,3.631404142,1,10,1,4
11,2,571,f42887_e_133,1,3.288088335,1,10,1,4
11,2,572,f42887_e_096,1,1.290157503,0,9,1,4
11,2,573,f42887_e_251,1,1.455397347,1,10,1,4
11,2,574,f42887_e_215,1,3.713812575,0,9,2,4
11,2,575,f42887_e_123,1,8.007221095,1,10,1,4
11,2,576,f42887_e_075,1,1.112549614,1,10,1,4
11,2,577,f42887_e_068,1,6.396060463,1,10,1,4
11,2,578,f42887_e_239,1,0.607215123,1,10,2,4
11,2,579,f42887_e_140,1,1.219824452,1,10,1,4
11,2,580,f42887_e_281,1,1.596083665,1,10,2,4
11,2,581,f42887_e_282,1,0.851804278,1,9,2,3
11,2,582,f42887_e_221,1,2.196252172,1,9,1,3
11,2,583,f42887_e_050,1,0.948791435,1,9,2,3
11,2,584,f42887_e_033,1,0.490679569,1,9,2,3
11,2,585,f42887_e_259,1,0.713819106,1,9,1,3
11,2,586,f42887_e_043,1,0.595838587,1,10,2,4
11,2,587,f42887_e_232,1,0.666626339,1,9,1,3
11,2,588,f42887_e_097,1,0.913722568,1,9,2,3
11,2,589,f42887_e_069,1,0.690314627,1,10,1,4
11,2,590,f42887_e_178,1,0.549070663,1,10,1,4
11,2,591,f42887_e_148,1,0.689847175,1,9,2,3
11,2,592,f42887_e_136,1,0.702107298,1,10,1,4
11,2,593,f42887_e_024,1,0.595629586,1,9,1,3
11,2,594,f42887_e_118,1,0.605527568,1,9,1,3
11,2,595,f42887_e_157,1,0.677589539,1,10,2,4
11,2,596,f42887_e_055,1,0.701835784,1,10,1,4
11,2,597,f42887_e_220,1,0.64322045,1,9,1,3
11,2,598,f42887_e_164,1,0.737070421,0,9,2,4
11,2,599,f42887_e_021,1,0.642867762,1,10,2,4
11,2,600,f42887_e_034,1,0.619157392,1,9,1,3
12,1,1,f42887_e_265,1,1.397169678,1,9,2,3
12,1,2,f42887_e_257,1,9.782013733,1,10,1,4
12,1,3,f42887_e_124,1,10.00238239,-1,10,2,0
12,1,4,f42887_e_001,1,3.51004882,1,9,2,3
12,1,5,f42887_e_060,1,1.529214342,1,9,2,3
12,1,6,f42887_e_114,1,2.03925041,1,9,2,3
12,1,7,f42887_e_088,1,8.871691279,1,9,1,3
12,1,8,f42887_e_049,1,3.220180496,1,9,2,3
12,1,9,f42887_e_218,1,2.770118246,1,9,1,3
12,1,10,f42887_e_082,1,2.09962202,0,10,1,3
12,1,11,f42887_e_239,1,1.739726236,1,9,1,3
12,1,12,f42887_e_075,1,1.510006833,1,9,2,3
12,1,13,f42887_e_133,1,2.639749967,1,10,2,4
12,1,14,f42887_e_288,1,1.359106422,1,10,2,4
12,1,15,f42887_e_010,1,6.981026376,1,9,1,3
12,1,16,f42887_e_000,1,3.980627963,1,10,1,4
12,1,17,f42887_e_199,1,1.319590402,1,9,1,3
12,1,18,f42887_e_278,1,1.489084996,1,9,1,3
12,1,19,f42887_e_008,1,1.129434915,1,9,1,3
12,1,20,f42887_e_121,1,2.019288062,1,10,2,4
12,1,21,f42887_e_286,1,6.281013345,1,10,1,4
12,1,22,f42887_e_070,1,6.74103562,1,10,1,4
12,1,23,f42887_e_240,1,1.418595986,1,9,2,3
12,1,24,f42887_e_038,1,1.319237709,1,10,2,4
12,1,25,f42887_e_063,1,1.009180926,1,9,1,3
12,1,26,f42887_e_107,1,1.29901255,1,9,2,3
12,1,27,f42887_e_279,1,1.718940625,1,10,2,4
12,1,28,f42887_e_291,1,1.248505794,1,9,2,3
12,1,29,f42887_e_004,1,1.288968862,1,10,2,4
12,1,30,f42887_e_220,1,0.839054967,1,9,2,3
12,1,31,f42887_e_094,1,1.796258024,1,9,1,3
12,1,32,f42887_e_237,1,1.298271396,1,9,2,3
12,1,33,f42887_e_050,1,1.107905972,1,9,2,3
12,1,34,f42887_e_120,1,2.679042365,1,10,2,4
12,1,35,f42887_e_233,1,1.858326856,1,10,2,4
12,1,36,f42887_e_085,1,1.268636714,1,9,1,3
12,1,37,f42887_e_258,1,3.239112443,1,9,1,3
12,1,38,f42887_e_013,1,5.100077972,1,10,2,4
12,1,39,f42887_e_024,1,0.898296339,1,9,2,3
12,1,40,f42887_e_052,1,1.188149735,1,10,2,4
12,1,41,f42887_e_030,1,1.597231073,1,10,1,4
12,1,42,f42887_e_187,1,1.267727921,1,10,1,4
12,1,43,f42887_e_156,1,1.438484934,1,10,2,4
12,1,44,f42887_e_006,1,1.638501854,1,9,2,3
12,1,45,f42887_e_014,1,0.698015677,1,9,2,3
12,1,46,f42887_e_172,1,0.58796555,1,9,2,3
12,1,47,f42887_e_214,1,0.577826379,1,9,2,3
12,1,48,f42887_e_031,1,0.567854536,1,9,2,3
12,1,49,f42887_e_228,1,0.658131102,1,9,2,3
12,1,50,f42887_e_165,1,2.048266808,1,10,1,4
12,1,51,f42887_e_181,1,1.267991975,1,10,1,4
12,1,52,f42887_e_141,1,0.707707605,1,10,2,4
12,1,53,f42887_e_211,1,0.938018874,1,10,1,4
12,1,54,f42887_e_185,1,0.827774051,1,10,2,4
12,1,55,f42887_e_056,1,0.827426022,1,10,1,4
12,1,56,f42887_e_195,1,0.937885759,1,9,1,3
12,1,57,f42887_e_226,1,1.037524574,1,10,1,4
12,1,58,f42887_e_207,1,0.647212832,1,10,2,4
12,1,59,f42887_e_189,1,0.907329221,1,10,1,4
12,1,60,f42887_e_247,1,0.797378931,1,9,2,3
12,1,61,f42887_e_130,1,0.75682007,1,10,1,4
12,1,62,f42887_e_173,1,1.347761436,1,10,1,4
12,1,63,f42887_e_109,1,1.157671885,1,10,2,4
12,1,64,f42887_e_126,1,0.866995537,1,10,1,4
12,1,65,f42887_e_222,1,0.92764333,1,9,1,3
12,1,66,f42887_e_029,1,0.846974406,1,9,1,3
12,1,67,f42887_e_283,1,0.887343236,1,9,2,3
12,1,68,f42887_e_251,1,0.957195281,1,10,2,4
12,1,69,f42887_e_061,1,1.017347624,1,10,2,4
12,1,70,f42887_e_274,1,1.447532434,1,10,1,4
12,1,71,f42887_e_069,1,1.167696601,1,10,2,4
12,1,72,f42887_e_276,1,0.716937983,1,10,1,4
12,1,73,f42887_e_090,1,0.636922196,1,10,1,4
12,1,74,f42887_e_036,1,0.967180188,1,10,2,4
12,1,75,f42887_e_144,1,0.877131597,1,9,1,3
12,1,76,f42887_e_260,1,1.07732984,1,9,2,3
12,1,77,f42887_e_281,1,0.696964749,1,9,2,3
12,1,78,f42887_e_092,1,0.856249881,1,10,1,4
12,1,79,f42887_e_048,1,1.006969903,1,10,1,4
12,1,80,f42887_e_102,1,0.786931231,1,9,2,3
12,1,81,f42887_e_100,1,0.796048087,1,10,2,4
12,1,82,f42887_e_080,1,1.446995617,1,10,1,4
12,1,83,f42887_e_190,1,0.94648446,1,10,2,4
12,1,84,f42887_e_193,1,0.796824698,1,10,1,4
12,1,85,f42887_e_277,1,0.836643648,1,9,1,3
12,1,86,f42887_e_074,1,0.606980539,1,9,1,3
12,1,87,f42887_e_033,1,0.636770108,1,9,1,3
12,1,88,f42887_e_067,1,0.536817165,1,9,1,3
12,1,89,f42887_e_296,1,0.775677373,1,9,2,3
12,1,90,f42887_e_263,1,1.106345286,1,10,1,4
12,1,91,f42887_e_108,1,1.006155659,1,10,1,4
12,1,92,f42887_e_136,1,0.866633201,1,10,1,4
12,1,93,f42887_e_016,1,0.826742406,1,9,2,3
12,1,94,f42887_e_148,1,0.956422092,1,9,1,3
12,1,95,f42887_e_212,1,1.156616602,1,10,2,4
12,1,96,f42887_e_152,1,1.306788299,1,10,2,4
12,1,97,f42887_e_271,1,0.876354054,1,9,2,3
12,1,98,f42887_e_161,1,0.776523651,1,10,1,4
12,1,99,f42887_e_262,1,1.026355935,1,9,2,3
12,1,100,f42887_e_250,1,1.10577488,1,9,2,3
12,1,101,f42887_e_235,1,10.00601321,-1,10,1,0
12,1,102,f42887_e_170,1,8.539044672,1,9,1,3
12,1,103,f42887_e_209,1,9.93971081,1,10,1,4
12,1,104,f42887_e_163,1,3.90712115,1,9,2,3
12,1,105,f42887_e_096,1,1.846204638,1,10,2,4
12,1,106,f42887_e_175,1,1.516043372,1,9,2,3
12,1,107,f42887_e_078,1,1.206382515,1,9,2,3
12,1,108,f42887_e_202,1,0.836799157,1,9,2,3
12,1,109,f42887_e_266,1,1.885956097,1,10,2,4
12,1,110,f42887_e_099,1,1.276463781,1,9,1,3
12,1,111,f42887_e_055,1,1.005837177,1,9,2,3
12,1,112,f42887_e_232,1,6.447729308,1,10,2,4
12,1,113,f42887_e_059,1,1.016199969,1,9,2,3
12,1,114,f42887_e_131,1,1.916707021,1,10,1,4
12,1,115,f42887_e_299,1,0.856024394,1,9,1,3
12,1,116,f42887_e_194,1,0.946472019,1,10,2,4
12,1,117,f42887_e_186,1,1.315694286,1,10,1,4
12,1,118,f42887_e_272,1,2.436435329,1,10,1,4
12,1,119,f42887_e_298,1,0.825893017,1,9,2,3
12,1,120,f42887_e_084,1,0.946002072,1,10,1,4
12,1,121,f42887_e_134,1,1.105891823,1,9,2,3
12,1,122,f42887_e_057,1,0.815338015,1,10,1,4
12,1,123,f42887_e_294,1,0.705210134,1,9,2,3
12,1,124,f42887_e_244,1,0.835449963,1,10,2,4
12,1,125,f42887_e_219,1,1.075670873,1,9,2,3
12,1,126,f42887_e_047,1,1.506215219,1,9,1,3
12,1,127,f42887_e_225,1,1.58581953,1,9,2,3
12,1,128,f42887_e_045,1,0.915369646,1,9,2,3
12,1,129,f42887_e_116,1,1.155444999,1,9,1,3
12,1,130,f42887_e_123,1,1.355394428,1,9,2,3
12,1,131,f42887_e_015,1,10.00829639,-1,10,2,0
12,1,132,f42887_e_256,1,2.345750086,1,9,2,3
12,1,133,f42887_e_216,1,5.396725856,1,9,1,3
12,1,134,f42887_e_142,1,0.984740859,1,9,2,3
12,1,135,f42887_e_132,1,1.235771493,1,9,2,3
12,1,136,f42887_e_290,1,1.235133907,1,10,2,4
12,1,137,f42887_e_097,1,1.225236086,1,9,1,3
12,1,138,f42887_e_043,1,0.745028152,1,10,2,4
12,1,139,f42887_e_192,1,1.895407609,1,10,1,4
12,1,140,f42887_e_287,1,0.875169077,1,9,1,3
12,1,141,f42887_e_167,1,4.706118927,1,10,2,4
12,1,142,f42887_e_025,1,0.864385167,1,9,2,3
12,1,143,f42887_e_267,1,1.085017882,1,9,1,3
12,1,144,f42887_e_089,1,10.00854272,-1,10,1,0
12,1,145,f42887_e_238,1,1.425238076,1,9,2,3
12,1,146,f42887_e_139,1,1.04492959,1,9,1,3
12,1,147,f42887_e_236,1,4.746033982,1,10,2,4
12,1,148,f42887_e_106,1,0.995048601,1,9,2,3
12,1,149,f42887_e_255,1,10.00737796,-1,10,2,0
12,1,150,f42887_e_174,1,1.985538619,1,9,2,3
12,1,151,f42887_e_179,1,1.274940728,1,9,2,3
12,1,152,f42887_e_252,1,1.735644753,1,10,2,4
12,1,153,f42887_e_197,1,0.984797464,1,9,1,3
12,1,154,f42887_e_183,1,1.95447761,1,9,2,3
12,1,155,f42887_e_171,1,1.424857702,1,10,1,4
12,1,156,f42887_e_098,1,2.615180516,1,10,2,4
12,1,157,f42887_e_007,1,1.01490116,1,10,1,4
12,1,158,f42887_e_269,1,1.08493173,1,9,1,3
12,1,159,f42887_e_248,1,1.304517872,1,9,2,3
12,1,160,f42887_e_068,1,1.114259749,1,10,2,4
12,1,161,f42887_e_168,1,0.623927262,0,10,2,3
12,1,162,f42887_e_155,1,0.834355492,1,10,2,4
12,1,163,f42887_e_072,1,1.374580787,1,10,1,4
12,1,164,f42887_e_018,1,1.074026834,1,10,2,4
12,1,165,f42887_e_035,1,1.064370673,1,9,1,3
12,1,166,f42887_e_217,1,0.914269266,1,10,2,4
12,1,167,f42887_e_062,1,1.35392176,1,9,1,3
12,1,168,f42887_e_259,1,1.194034808,1,10,1,4
12,1,169,f42887_e_073,1,2.154697313,1,10,2,4
12,1,170,f42887_e_285,1,1.19446619,1,9,2,3
12,1,171,f42887_e_182,1,2.244700184,1,10,1,4
12,1,172,f42887_e_065,1,0.913765418,1,9,1,3
12,1,173,f42887_e_091,1,0.683822082,1,9,1,3
12,1,174,f42887_e_129,1,3.224518568,1,9,2,3
12,1,175,f42887_e_039,1,10.00742306,-1,10,1,0
12,1,176,f42887_e_253,1,1.443801157,1,10,2,4
12,1,177,f42887_e_241,1,9.411891381,1,10,1,4
12,1,178,f42887_e_150,1,2.263700555,1,9,2,3
12,1,179,f42887_e_140,1,0.993734863,1,9,1,3
12,1,180,f42887_e_180,1,1.213965744,1,9,1,3
12,1,181,f42887_e_058,1,1.743170444,1,10,2,4
12,1,182,f42887_e_009,1,2.0836662,1,9,1,3
12,1,183,f42887_e_293,1,1.883457694,1,10,1,4
12,1,184,f42887_e_230,1,1.412414513,1,10,1,4
12,1,185,f42887_e_223,1,1.273515646,1,9,2,3
12,1,186,f42887_e_176,1,4.044749511,0,10,1,3
12,1,187,f42887_e_002,1,1.723345566,1,10,2,4
12,1,188,f42887_e_019,1,1.483533333,1,10,1,4
12,1,189,f42887_e_143,1,2.142992169,1,10,1,4
12,1,190,f42887_e_157,1,1.603508029,1,10,2,4
12,1,191,f42887_e_034,1,1.583071068,1,9,1,3
12,1,192,f42887_e_104,1,1.193861883,1,10,2,4
12,1,193,f42887_e_166,1,3.153267877,1,10,1,4
12,1,194,f42887_e_245,1,1.343487433,1,9,1,3
12,1,195,f42887_e_210,1,0.843334879,1,9,1,3
12,1,196,f42887_e_205,1,1.573195018,1,9,1,3
12,1,197,f42887_e_284,1,0.951642375,1,9,1,3
12,1,198,f42887_e_064,1,1.853497376,1,10,2,4
12,1,199,f42887_e_054,1,0.773027193,1,9,1,3
12,1,200,f42887_e_081,1,0.8635731,1,9,1,3
12,1,201,f42887_e_178,1,1.713671055,1,10,2,4
12,1,202,f42887_e_206,1,1.332297023,1,9,2,3
12,1,203,f42887_e_243,1,2.662904288,1,9,2,3
12,1,204,f42887_e_117,1,1.192515488,1,10,2,4
12,1,205,f42887_e_249,1,1.102824568,1,9,2,3
12,1,206,f42887_e_164,1,3.182968183,1,9,1,3
12,1,207,f42887_e_083,1,1.142571051,1,9,2,3
12,1,208,f42887_e_153,1,5.964880213,1,10,2,4
12,1,209,f42887_e_026,1,2.072997055,1,10,2,4
12,1,210,f42887_e_003,1,2.002486896,1,10,2,4
12,1,211,f42887_e_159,1,5.354748755,1,10,2,4
12,1,212,f42887_e_198,1,1.742443285,1,10,2,4
12,1,213,f42887_e_040,1,3.553469354,1,9,1,3
12,1,214,f42887_e_115,1,1.191988624,1,10,2,4
12,1,215,f42887_e_151,1,1.982901501,1,9,2,3
12,1,216,f42887_e_234,1,0.912607499,1,10,2,4
12,1,217,f42887_e_229,1,1.312529372,1,9,1,3
12,1,218,f42887_e_231,1,1.182321889,1,10,2,4
12,1,219,f42887_e_289,1,1.312683014,1,10,2,4
12,1,220,f42887_e_135,1,1.512647994,1,9,2,3
12,1,221,f42887_e_027,1,1.19236029,1,9,2,3
12,1,222,f42887_e_282,1,1.812260497,1,10,2,4
12,1,223,f42887_e_042,1,1.401991383,1,9,1,3
12,1,224,f42887_e_125,1,2.352942677,1,9,1,3
12,1,225,f42887_e_113,1,1.782417433,1,9,1,3
12,1,226,f42887_e_201,1,3.623154383,1,10,1,4
12,1,227,f42887_e_200,1,1.912274089,1,10,1,4
12,1,228,f42887_e_146,1,1.302504344,1,10,2,4
12,1,229,f42887_e_053,1,1.932973237,1,10,1,4
12,1,230,f42887_e_122,1,1.13289032,1,10,1,4
12,1,231,f42887_e_101,1,2.632616469,1,9,2,3
12,1,232,f42887_e_044,1,0.842129064,1,9,2,3
12,1,233,f42887_e_275,1,1.162063763,1,10,2,4
12,1,234,f42887_e_224,1,1.12175185,1,10,2,4
12,1,235,f42887_e_023,1,1.142394704,1,10,2,4
12,1,236,f42887_e_270,1,1.122237037,1,10,1,4
12,1,237,f42887_e_268,1,1.312356446,1,9,2,3
12,1,238,f42887_e_127,1,0.861836378,1,9,1,3
12,1,239,f42887_e_112,1,0.922108773,1,10,1,4
12,1,240,f42887_e_046,1,0.811697244,1,9,1,3
12,1,241,f42887_e_204,1,0.822056616,1,9,2,3
12,1,242,f42887_e_292,1,1.212024062,1,10,1,4
12,1,243,f42887_e_203,1,0.771939253,1,10,2,4
12,1,244,f42887_e_041,1,0.752004586,1,9,1,3
12,1,245,f42887_e_119,1,0.75128769,1,9,1,3
12,1,246,f42887_e_215,1,0.971827411,1,10,2,4
12,1,247,f42887_e_128,1,0.831892856,1,9,2,3
12,1,248,f42887_e_261,1,0.801391679,1,9,2,3
12,1,249,f42887_e_221,1,0.851323053,1,10,2,4
12,1,250,f42887_e_103,1,0.801142554,1,10,2,4
12,1,251,f42887_e_254,1,0.761636176,1,9,1,3
12,1,252,f42887_e_086,1,0.791256551,1,9,2,3
12,1,253,f42887_e_147,1,0.98147082,0,10,2,3
12,1,254,f42887_e_093,1,0.651215939,1,9,2,3
12,1,255,f42887_e_066,1,0.761501505,1,9,1,3
12,1,256,f42887_e_005,1,1.111305082,1,10,1,4
12,1,257,f42887_e_184,1,1.372237892,1,10,2,4
12,1,258,f42887_e_137,1,0.971284997,1,9,1,3
12,1,259,f42887_e_242,1,0.810575715,1,9,1,3
12,1,260,f42887_e_087,1,1.391513203,1,10,2,4
12,1,261,f42887_e_012,1,0.851253696,1,9,1,3
12,1,262,f42887_e_169,1,0.920930017,1,9,2,3
12,1,263,f42887_e_191,1,1.69126131,1,10,2,4
12,1,264,f42887_e_295,1,1.101307424,1,9,2,3
12,1,265,f42887_e_273,1,1.061006708,1,9,1,3
12,1,266,f42887_e_162,1,1.071496706,1,10,1,4
12,1,267,f42887_e_154,1,0.991524151,1,9,2,3
12,1,268,f42887_e_158,1,0.991340028,1,9,2,3
12,1,269,f42887_e_022,1,1.151262436,1,10,2,4
12,1,270,f42887_e_011,1,0.600731575,1,9,2,3
12,1,271,f42887_e_196,1,1.250983049,1,9,1,3
12,1,272,f42887_e_297,1,0.740889753,1,9,1,3
12,1,273,f42887_e_028,1,0.920915088,1,10,1,4
12,1,274,f42887_e_021,1,1.391163308,1,10,1,4
12,1,275,f42887_e_227,1,1.221027708,1,10,2,4
12,1,276,f42887_e_160,1,0.660051013,1,10,2,4
12,1,277,f42887_e_246,1,0.840415358,1,10,1,4
12,1,278,f42887_e_079,1,0.680240404,1,10,1,4
12,1,279,f42887_e_095,1,0.720027009,1,9,2,3
12,1,280,f42887_e_020,1,1.323371131,1,10,1,4
12,1,281,f42887_e_177,1,0.690298089,1,9,2,3
12,1,282,f42887_e_017,1,0.740245635,1,9,1,3
12,1,283,f42887_e_037,1,0.810585979,1,9,2,3
12,1,284,f42887_e_138,1,0.820604475,1,9,2,3
12,1,285,f42887_e_149,1,0.790527526,1,9,1,3
12,1,286,f42887_e_145,1,0.760280762,1,9,1,3
12,1,287,f42887_e_264,1,1.450187279,1,10,1,4
12,1,288,f42887_e_213,1,0.870267441,1,9,1,3
12,1,289,f42887_e_077,1,1.020789655,1,9,1,3
12,1,290,f42887_e_118,1,1.010613162,1,10,2,4
12,1,291,f42887_e_111,1,0.630499062,1,9,2,3
12,1,292,f42887_e_188,1,1.059653782,1,10,2,4
12,1,293,f42887_e_032,1,0.550235394,1,9,2,3
12,1,294,f42887_e_280,1,2.170733376,1,10,2,4
12,1,295,f42887_e_076,1,1.560006942,1,10,1,4
12,1,296,f42887_e_105,1,1.090157135,1,9,2,3
12,1,297,f42887_e_071,1,1.000496695,1,9,1,3
12,1,298,f42887_e_051,1,5.24170975,1,10,1,4
12,1,299,f42887_e_208,1,0.799679217,1,9,1,3
12,1,300,f42887_e_110,1,0.989508757,1,9,2,3
12,2,301,f42887_e_028,1,2.504247411,1,9,2,3
12,2,302,f42887_e_264,1,1.208916997,1,9,2,3
12,2,303,f42887_e_165,1,1.13950193,1,9,2,3
12,2,304,f42887_e_131,1,1.310363135,1,10,1,4
12,2,305,f42887_e_186,1,1.12001264,1,9,2,3
12,2,306,f42887_e_146,1,2.440521477,1,9,1,3
12,2,307,f42887_e_299,1,1.57975842,1,9,1,3
12,2,308,f42887_e_242,1,1.059394704,1,9,2,3
12,2,309,f42887_e_058,1,1.669616357,1,10,2,4
12,2,310,f42887_e_155,1,0.939352829,1,9,2,3
12,2,311,f42887_e_061,1,1.059987503,1,10,2,4
12,2,312,f42887_e_014,1,1.519967791,1,10,2,4
12,2,313,f42887_e_294,1,0.899779271,1,9,2,3
12,2,314,f42887_e_184,1,0.739375408,1,9,2,3
12,2,315,f42887_e_062,1,0.969572845,1,10,2,4
12,2,316,f42887_e_161,1,1.749553146,1,9,2,3
12,2,317,f42887_e_040,1,5.250847756,1,10,1,4
12,2,318,f42887_e_248,1,1.679015306,1,9,1,3
12,2,319,f42887_e_144,1,0.899283198,1,9,2,3
12,2,320,f42887_e_249,1,1.238794894,1,10,2,4
12,2,321,f42887_e_285,1,2.169703597,1,10,1,4
12,2,322,f42887_e_036,1,1.01889618,1,10,2,4
12,2,323,f42887_e_145,1,2.529582275,1,10,1,4
12,2,324,f42887_e_149,1,0.799365089,1,9,2,3
12,2,325,f42887_e_079,1,0.928906372,1,9,1,3
12,2,326,f42887_e_114,1,0.648063465,1,9,1,3
12,2,327,f42887_e_221,1,0.929268708,1,10,1,4
12,2,328,f42887_e_223,1,1.439387507,1,10,2,4
12,2,329,f42887_e_029,1,1.179373754,1,10,1,4
12,2,330,f42887_e_104,1,1.318764962,1,10,1,4
12,2,331,f42887_e_098,1,0.828808184,1,9,1,3
12,2,332,f42887_e_296,1,1.288586621,1,10,1,4
12,2,333,f42887_e_008,1,0.868328869,1,9,2,3
12,2,334,f42887_e_045,1,1.17871533,1,10,2,4
12,2,335,f42887_e_291,1,1.029051213,1,10,2,4
12,2,336,f42887_e_220,1,0.908372996,1,9,1,3
12,2,337,f42887_e_196,1,0.738953047,1,9,2,3
12,2,338,f42887_e_064,1,0.83898561,1,9,1,3
12,2,339,f42887_e_217,1,1.169138789,1,10,2,4
12,2,340,f42887_e_123,1,1.658582077,1,10,2,4
12,2,341,f42887_e_151,1,0.7889149,1,10,2,4
12,2,342,f42887_e_011,1,0.728727413,1,9,2,3
12,2,343,f42887_e_068,1,0.607247392,1,9,2,3
12,2,344,f42887_e_293,1,3.179406411,1,10,1,4
12,2,345,f42887_e_215,1,1.35787106,1,10,1,4
12,2,346,f42887_e_246,1,0.808007644,1,10,1,4
12,2,347,f42887_e_071,1,0.888290284,1,9,2,3
12,2,348,f42887_e_187,1,0.758026196,0,9,1,4
12,2,349,f42887_e_083,1,0.938371879,1,10,2,4
12,2,350,f42887_e_090,1,0.767776906,1,9,1,3
12,2,351,f42887_e_089,1,0.797736601,1,9,2,3
12,2,352,f42887_e_017,1,1.178342109,1,10,1,4
12,2,353,f42887_e_051,1,1.388357619,1,9,2,3
12,2,354,f42887_e_081,1,4.679299265,1,10,1,4
12,2,355,f42887_e_205,1,2.9180332,1,10,2,4
12,2,356,f42887_e_172,1,1.187648997,1,10,2,4
12,2,357,f42887_e_234,1,3.93954597,0,10,1,3
12,2,358,f42887_e_122,1,1.09724989,0,10,1,3
12,2,359,f42887_e_284,1,0.880870028,1,9,1,3
12,2,360,f42887_e_031,1,0.738335677,1,9,2,3
12,2,361,f42887_e_009,1,1.85854488,1,10,2,4
12,2,362,f42887_e_263,1,1.758094309,1,9,1,3
12,2,363,f42887_e_140,1,1.738059493,1,10,2,4
12,2,364,f42887_e_096,1,0.998030015,1,9,2,3
12,2,365,f42887_e_167,1,0.688132163,1,9,2,3
12,2,366,f42887_e_105,1,0.667465982,1,9,2,3
12,2,367,f42887_e_289,1,0.588081871,1,9,2,3
12,2,368,f42887_e_137,1,0.617936753,1,9,2,3
12,2,369,f42887_e_033,1,2.538498837,0,10,1,3
12,2,370,f42887_e_225,1,0.876507696,1,10,2,4
12,2,371,f42887_e_106,1,0.737470426,1,9,2,3
12,2,372,f42887_e_195,1,1.977684804,1,10,1,4
12,2,373,f42887_e_056,1,2.067870553,1,10,2,4
12,2,374,f42887_e_063,1,1.147756646,1,9,1,3
12,2,375,f42887_e_001,1,4.529039239,1,10,1,4
12,2,376,f42887_e_042,1,1.78734675,1,10,1,4
12,2,377,f42887_e_250,1,2.778151206,1,10,1,4
12,2,378,f42887_e_002,1,0.985910596,1,10,2,4
12,2,379,f42887_e_135,1,0.826985621,1,9,2,3
12,2,380,f42887_e_039,1,1.417150688,1,10,2,4
12,2,381,f42887_e_180,1,0.874656831,1,9,2,3
12,2,382,f42887_e_240,1,1.066914796,1,10,2,4
12,2,383,f42887_e_004,1,2.657309394,1,10,1,4
12,2,384,f42887_e_201,1,1.586389314,1,9,1,3
12,2,385,f42887_e_253,1,0.966613825,1,10,1,4
12,2,386,f42887_e_176,1,1.047405601,1,10,1,4
12,2,387,f42887_e_230,1,0.656778487,1,10,1,4
12,2,388,f42887_e_078,1,0.71701667,1,10,2,4
12,2,389,f42887_e_132,1,0.976909127,1,9,2,3
12,2,390,f42887_e_082,1,0.837124481,1,10,2,4
12,2,391,f42887_e_268,1,0.956901992,1,10,2,4
12,2,392,f42887_e_113,1,1.146791248,1,9,1,3
12,2,393,f42887_e_006,1,0.686425298,1,10,1,4
12,2,394,f42887_e_102,1,1.257080858,1,10,2,4
12,2,395,f42887_e_286,1,0.806757664,1,9,2,3
12,2,396,f42887_e_035,1,0.807028871,1,10,1,4
12,2,397,f42887_e_238,1,0.936740903,1,9,1,3
12,2,398,f42887_e_178,1,0.922794878,1,9,2,3
12,2,399,f42887_e_237,1,1.137336004,1,9,2,3
12,2,400,f42887_e_141,1,1.265696354,1,10,1,4
12,2,401,f42887_e_129,1,2.052972192,1,9,1,3
12,2,402,f42887_e_212,1,1.865680555,1,10,2,4
12,2,403,f42887_e_211,1,1.215795771,1,10,1,4
12,2,404,f42887_e_163,1,2.147025755,1,9,2,3
12,2,405,f42887_e_010,1,1.465778898,1,9,1,3
12,2,406,f42887_e_041,1,1.066342524,1,9,1,3
12,2,407,f42887_e_072,1,0.966159428,1,9,2,3
12,2,408,f42887_e_206,1,2.146261896,1,10,2,4
12,2,409,f42887_e_080,1,4.577340259,1,10,1,4
12,2,410,f42887_e_003,1,0.875401407,1,9,2,3
12,2,411,f42887_e_032,1,4.24762126,1,10,1,4
12,2,412,f42887_e_142,1,0.966265174,1,10,2,4
12,2,413,f42887_e_073,1,0.876260748,1,9,1,3
12,2,414,f42887_e_147,1,1.08645385,1,9,1,3
12,2,415,f42887_e_021,1,1.846330289,1,9,1,3
12,2,416,f42887_e_266,1,0.735326271,1,9,2,3
12,2,417,f42887_e_166,1,1.17494051,1,10,2,4
12,2,418,f42887_e_233,1,2.246891302,1,10,1,4
12,2,419,f42887_e_278,1,4.317037571,1,10,1,4
12,2,420,f42887_e_050,1,0.865494255,1,9,2,3
12,2,421,f42887_e_159,1,1.296407779,1,10,2,4
12,2,422,f42887_e_069,1,0.936304235,1,10,1,4
12,2,423,f42887_e_274,1,1.275994766,1,9,2,3
12,2,424,f42887_e_055,1,0.925538364,1,9,1,3
12,2,425,f42887_e_148,1,1.176146947,1,10,2,4
12,2,426,f42887_e_020,1,0.956459414,1,9,1,3
12,2,427,f42887_e_044,1,0.945448461,1,9,1,3
12,2,428,f42887_e_115,1,0.67573967,1,9,1,3
12,2,429,f42887_e_269,1,0.704300408,1,9,2,3
12,2,430,f42887_e_070,1,0.655680284,1,9,1,3
12,2,431,f42887_e_108,1,0.645063701,1,9,1,3
12,2,432,f42887_e_282,1,0.625381891,1,9,2,3
12,2,433,f42887_e_103,1,0.60555017,1,9,1,3
12,2,434,f42887_e_235,1,0.485284673,1,9,1,3
12,2,435,f42887_e_136,1,0.505177042,1,9,1,3
12,2,436,f42887_e_126,1,0.765242424,1,10,1,4
12,2,437,f42887_e_085,1,0.625313467,1,9,2,3
12,2,438,f42887_e_101,1,0.634942569,1,9,1,3
12,2,439,f42887_e_214,1,0.575238403,1,9,2,3
12,2,440,f42887_e_158,1,0.774908227,1,10,2,4
12,2,441,f42887_e_259,1,0.595363102,0,9,2,4
12,2,442,f42887_e_097,1,1.295412212,1,10,1,4
12,2,443,f42887_e_273,1,1.935435874,1,10,1,4
12,2,444,f42887_e_262,1,1.495844339,1,10,1,4
12,2,445,f42887_e_243,1,1.315265704,1,10,2,4
12,2,446,f42887_e_210,1,2.075418637,0,10,1,3
12,2,447,f42887_e_049,1,0.810171703,1,10,2,4
12,2,448,f42887_e_298,1,0.935246775,1,10,2,4
12,2,449,f42887_e_241,1,1.505730031,1,9,1,3
12,2,450,f42887_e_254,1,1.295371779,1,9,2,3
12,2,451,f42887_e_279,1,1.334874425,1,9,1,3
12,2,452,f42887_e_232,1,1.455263707,1,10,1,4
12,2,453,f42887_e_171,1,1.175201143,1,9,2,3
12,2,454,f42887_e_117,1,0.825180787,1,9,1,3
12,2,455,f42887_e_170,1,1.364624806,1,10,2,4
12,2,456,f42887_e_088,1,0.744234746,1,10,1,4
12,2,457,f42887_e_077,1,0.595126729,1,10,1,4
12,2,458,f42887_e_190,1,0.824620644,1,10,1,4
12,2,459,f42887_e_026,1,0.644293,0,10,2,3
12,2,460,f42887_e_157,1,0.784061161,1,10,2,4
12,2,461,f42887_e_287,1,0.61418837,1,9,2,3
12,2,462,f42887_e_213,1,0.624542454,1,9,2,3
12,2,463,f42887_e_100,1,0.674088789,1,10,2,4
12,2,464,f42887_e_154,1,0.663931579,1,10,2,4
12,2,465,f42887_e_107,1,0.744114693,1,9,2,3
12,2,466,f42887_e_261,1,0.93515969,1,9,1,3
12,2,467,f42887_e_086,1,0.754304871,1,9,2,3
12,2,468,f42887_e_162,1,0.944774797,1,10,2,4
12,2,469,f42887_e_198,1,0.904590712,1,9,2,3
12,2,470,f42887_e_052,1,0.794298614,1,9,1,3
12,2,471,f42887_e_271,1,0.69430897,1,9,1,3
12,2,472,f42887_e_121,1,0.634183375,1,9,2,3
12,2,473,f42887_e_218,1,1.314442129,1,10,1,4
12,2,474,f42887_e_127,1,0.76483779,1,10,2,4
12,2,475,f42887_e_094,1,0.754646679,1,10,1,4
12,2,476,f42887_e_192,1,0.724369746,1,9,1,3
12,2,477,f42887_e_275,1,1.544754643,1,9,1,3
12,2,478,f42887_e_095,1,0.914213283,1,10,2,4
12,2,479,f42887_e_156,1,2.234733939,1,10,1,4
12,2,480,f42887_e_229,1,1.894226986,1,10,2,4
12,2,481,f42887_e_099,1,2.79397671,1,9,1,3
12,2,482,f42887_e_110,1,0.753657022,1,9,1,3
12,2,483,f42887_e_118,1,2.474751132,1,10,2,4
12,2,484,f42887_e_224,1,0.63303261,1,9,2,3
12,2,485,f42887_e_257,1,0.613939867,1,9,2,3
12,2,486,f42887_e_139,1,1.153986949,1,10,2,4
12,2,487,f42887_e_258,1,0.714328546,1,10,2,4
12,2,488,f42887_e_194,1,0.563106853,1,9,2,3
12,2,489,f42887_e_231,1,1.003494904,1,10,2,4
12,2,490,f42887_e_074,1,1.57358379,1,9,1,3
12,2,491,f42887_e_030,1,0.844082876,1,10,2,4
12,2,492,f42887_e_000,1,1.234074892,1,10,1,4
12,2,493,f42887_e_015,1,0.724056241,1,9,1,3
12,2,494,f42887_e_226,1,1.113932869,1,10,1,4
12,2,495,f42887_e_270,1,1.043674946,1,10,1,4
12,2,496,f42887_e_091,1,0.793657917,1,10,1,4
12,2,497,f42887_e_164,1,0.713005166,1,9,1,3
12,2,498,f42887_e_112,1,0.683914765,1,9,1,3
12,2,499,f42887_e_007,1,0.842697915,1,9,2,3
12,2,500,f42887_e_177,1,0.903078234,1,10,2,4
12,2,501,f42887_e_047,1,2.917029857,1,10,1,4
12,2,502,f42887_e_124,1,1.201121654,1,9,2,3
12,2,503,f42887_e_189,1,0.803594616,1,9,2,3
12,2,504,f42887_e_143,1,1.223471683,1,10,2,4
12,2,505,f42887_e_037,1,0.633560718,1,9,2,3
12,2,506,f42887_e_130,1,0.663001325,1,9,2,3
12,2,507,f42887_e_219,1,1.26369309,1,9,2,3
12,2,508,f42887_e_188,1,1.023168939,1,10,2,4
12,2,509,f42887_e_175,1,1.173437985,1,10,1,4
12,2,510,f42887_e_209,1,1.113506464,1,10,2,4
12,2,511,f42887_e_084,1,0.693496593,1,10,2,4
12,2,512,f42887_e_207,1,0.592981019,0,9,2,4
12,2,513,f42887_e_034,1,1.223396417,1,10,2,4
12,2,514,f42887_e_197,1,1.183306259,1,9,1,3
12,2,515,f42887_e_125,1,0.973003369,1,9,1,3
12,2,516,f42887_e_255,1,0.683022456,1,9,2,3
12,2,517,f42887_e_216,1,0.662838041,1,9,2,3
12,2,518,f42887_e_244,1,1.92339141,1,10,1,4
12,2,519,f42887_e_120,1,1.108142656,1,9,1,3
12,2,520,f42887_e_290,1,0.943234327,1,10,2,4
12,2,521,f42887_e_053,1,0.722747168,1,10,2,4
12,2,522,f42887_e_182,1,1.832379598,1,10,1,4
12,2,523,f42887_e_181,1,1.462816456,1,9,2,3
12,2,524,f42887_e_018,1,1.47280043,1,10,1,4
12,2,525,f42887_e_109,1,0.78298784,1,9,1,3
12,2,526,f42887_e_208,1,1.192402589,1,10,1,4
12,2,527,f42887_e_228,1,1.082245161,1,9,1,3
12,2,528,f42887_e_075,1,1.932796268,1,9,2,3
12,2,529,f42887_e_202,1,1.353299725,1,9,1,3
12,2,530,f42887_e_288,1,1.381119931,1,9,2,3
12,2,531,f42887_e_281,1,1.111786226,1,10,2,4
12,2,532,f42887_e_048,1,0.801964262,1,10,2,4
12,2,533,f42887_e_092,1,0.642341054,1,10,2,4
12,2,534,f42887_e_093,1,0.641375966,1,10,2,4
12,2,535,f42887_e_116,1,0.672487982,1,9,2,3
12,2,536,f42887_e_200,1,1.18236512,1,10,1,4
12,2,537,f42887_e_043,1,0.64256312,1,10,1,4
12,2,538,f42887_e_222,1,1.102714468,1,9,2,3
12,2,539,f42887_e_054,1,1.051838844,1,9,1,3
12,2,540,f42887_e_152,1,0.692176012,1,10,1,4
12,2,541,f42887_e_174,1,0.502490473,1,9,1,3
12,2,542,f42887_e_134,1,0.632122573,1,9,1,3
12,2,543,f42887_e_046,1,1.082157454,1,10,2,4
12,2,544,f42887_e_267,1,2.292602479,1,10,1,4
12,2,545,f42887_e_016,1,1.131639408,1,10,2,4
12,2,546,f42887_e_252,1,0.631703322,1,9,2,3
12,2,547,f42887_e_203,1,0.64173457,1,10,2,4
12,2,548,f42887_e_280,1,0.621523718,1,10,2,4
12,2,549,f42887_e_060,1,1.025363167,1,10,1,4
12,2,550,f42887_e_260,1,1.161972324,1,9,2,3
12,2,551,f42887_e_169,1,0.941614859,1,9,2,3
12,2,552,f42887_e_005,1,1.221210897,1,9,1,3
12,2,553,f42887_e_199,1,2.782767328,1,10,1,4
12,2,554,f42887_e_153,1,2.152326427,1,10,2,4
12,2,555,f42887_e_022,1,1.522243817,1,10,2,4
12,2,556,f42887_e_013,1,1.702108668,1,10,2,4
12,2,557,f42887_e_292,1,1.581901953,1,10,1,4
12,2,558,f42887_e_185,1,1.55173823,1,9,2,3
12,2,559,f42887_e_138,1,3.352649387,1,10,1,4
12,2,560,f42887_e_133,1,1.091572887,1,9,2,3
12,2,561,f42887_e_251,1,0.590962204,1,9,2,3
12,2,562,f42887_e_227,1,0.671554618,1,10,2,4
12,2,563,f42887_e_067,1,2.070733469,1,10,1,4
12,2,564,f42887_e_150,1,1.722348443,1,9,1,3
12,2,565,f42887_e_065,1,1.101877208,1,9,2,3
12,2,566,f42887_e_012,1,1.171956608,1,10,1,4
12,2,567,f42887_e_295,1,0.781703026,1,9,2,3
12,2,568,f42887_e_168,1,1.781131376,1,9,2,3
12,2,569,f42887_e_160,1,0.840955284,1,9,2,3
12,2,570,f42887_e_111,1,1.141534119,1,10,2,4
12,2,571,f42887_e_119,1,1.945112873,1,10,1,4
12,2,572,f42887_e_247,1,1.121633041,1,9,2,3
12,2,573,f42887_e_236,1,0.961207718,1,9,1,3
12,2,574,f42887_e_019,1,0.832669466,1,9,1,3
12,2,575,f42887_e_059,1,0.601342725,1,9,2,3
12,2,576,f42887_e_038,1,0.670764944,1,9,1,3
12,2,577,f42887_e_272,1,0.730224962,1,10,2,4
12,2,578,f42887_e_239,1,0.79099343,1,10,1,4
12,2,579,f42887_e_027,1,0.621367899,0,10,2,3
12,2,580,f42887_e_256,1,0.690100903,1,9,2,3
12,2,581,f42887_e_066,1,1.541164879,1,10,1,4
12,2,582,f42887_e_179,1,1.791430721,1,10,1,4
12,2,583,f42887_e_173,1,2.111549853,1,9,1,3
12,2,584,f42887_e_297,1,0.771105415,1,9,1,3
12,2,585,f42887_e_076,1,1.551081983,1,10,2,4
12,2,586,f42887_e_024,1,0.860131691,1,9,1,3
12,2,587,f42887_e_193,1,1.470769485,1,10,2,4
12,2,588,f42887_e_023,1,0.82053263,1,9,1,3
12,2,589,f42887_e_276,1,1.441213491,1,10,2,4
12,2,590,f42887_e_025,1,1.320565442,1,10,2,4
12,2,591,f42887_e_087,1,1.590848683,1,10,1,4
12,2,592,f42887_e_265,1,0.680949524,1,10,1,4
12,2,593,f42887_e_057,1,0.860853874,1,9,1,3
12,2,594,f42887_e_277,1,1.200272887,1,9,2,3
12,2,595,f42887_e_245,1,0.590323374,0,10,2,3
12,2,596,f42887_e_128,1,0.850566036,1,10,2,4
12,2,597,f42887_e_183,1,0.959999415,1,10,2,4
12,2,598,f42887_e_191,1,1.300878345,1,9,1,3
12,2,599,f42887_e_204,1,1.320563576,1,10,2,4
12,2,600,f42887_e_283,1,1.770912273,1,10,1,4
14,1,1,f42887_e_230,1,1.873971307,1,10,1,4
14,1,2,f42887_e_195,1,1.536665024,1,9,1,3
14,1,3,f42887_e_017,1,1.552114552,1,10,1,4
14,1,4,f42887_e_185,1,1.68904164,1,10,1,4
14,1,5,f42887_e_297,1,1.805432807,1,9,1,3
14,1,6,f42887_e_290,1,2.335108315,1,9,2,3
14,1,7,f42887_e_038,1,1.575314657,1,10,1,4
14,1,8,f42887_e_172,1,3.114540296,1,9,2,3
14,1,9,f42887_e_287,1,1.299306678,1,9,2,3
14,1,10,f42887_e_054,1,1.23706319,1,10,2,4
14,1,11,f42887_e_281,1,1.089868452,1,9,2,3
14,1,12,f42887_e_295,1,1.739767495,1,10,1,4
14,1,13,f42887_e_255,1,1.280411067,1,9,1,3
14,1,14,f42887_e_177,1,2.430703859,1,9,1,3
14,1,15,f42887_e_018,1,1.196863442,1,9,2,3
14,1,16,f42887_e_163,1,1.26615274,1,10,1,4
14,1,17,f42887_e_044,1,1.749902651,1,10,1,4
14,1,18,f42887_e_284,1,1.099852142,1,9,1,3
14,1,19,f42887_e_104,1,1.212977304,1,10,1,4
14,1,20,f42887_e_181,1,1.850813811,0,9,2,4
14,1,21,f42887_e_180,1,2.177300385,1,9,1,3
14,1,22,f42887_e_108,1,2.960482937,1,9,2,3
14,1,23,f42887_e_066,1,1.629982048,1,10,2,4
14,1,24,f42887_e_122,1,2.239912119,1,10,2,4
14,1,25,f42887_e_093,1,1.923262745,1,10,2,4
14,1,26,f42887_e_179,1,1.433666932,1,9,2,3
14,1,27,f42887_e_136,1,1.135996211,1,9,2,3
14,1,28,f42887_e_167,1,1.847467875,1,10,1,4
14,1,29,f42887_e_191,1,1.762074667,1,10,2,4
14,1,30,f42887_e_251,1,2.868287757,1,9,1,3
14,1,31,f42887_e_121,1,2.195242103,1,9,1,3
14,1,32,f42887_e_146,1,1.477246206,1,10,2,4
14,1,33,f42887_e_064,1,2.39378069,1,9,2,3
14,1,34,f42887_e_263,1,1.860809631,1,9,2,3
14,1,35,f42887_e_022,1,1.532618053,1,9,2,3
14,1,36,f42887_e_266,1,1.732387651,1,9,1,3
14,1,37,f42887_e_035,1,1.577586647,1,9,1,3
14,1,38,f42887_e_006,1,1.462171767,1,10,2,4
14,1,39,f42887_e_182,1,1.303684884,1,10,1,4
14,1,40,f42887_e_020,1,1.639754868,1,9,2,3
14,1,41,f42887_e_156,1,1.580046802,1,9,1,3
14,1,42,f42887_e_280,1,1.201541158,1,9,2,3
14,1,43,f42887_e_148,1,1.260750039,1,9,2,3
14,1,44,f42887_e_105,1,1.840099538,1,9,2,3
14,1,45,f42887_e_097,1,1.55788612,1,10,2,4
14,1,46,f42887_e_212,1,1.290409375,1,9,2,3
14,1,47,f42887_e_149,1,2.228702705,1,10,2,4
14,1,48,f42887_e_059,1,1.335845429,1,9,2,3
14,1,49,f42887_e_285,1,3.155284638,1,10,2,4
14,1,50,f42887_e_218,1,2.996062196,1,10,1,4
14,1,51,f42887_e_010,1,3.334543817,1,10,1,4
14,1,52,f42887_e_135,1,1.557466867,1,9,2,3
14,1,53,f42887_e_158,1,1.593752449,1,9,1,3
14,1,54,f42887_e_274,1,1.654081308,1,9,1,3
14,1,55,f42887_e_256,1,1.396368052,1,10,1,4
14,1,56,f42887_e_091,1,4.835879641,1,10,2,4
14,1,57,f42887_e_134,1,2.190416342,1,9,2,3
14,1,58,f42887_e_227,1,2.402424513,1,10,2,4
14,1,59,f42887_e_042,1,1.320965687,1,9,2,3
14,1,60,f42887_e_199,1,1.389803698,1,10,2,4
14,1,61,f42887_e_131,1,1.556467254,1,9,2,3
14,1,62,f42887_e_145,1,1.384834868,1,10,2,4
14,1,63,f42887_e_178,1,1.68784733,1,9,2,3
14,1,64,f42887_e_099,1,2.838223164,1,9,1,3
14,1,65,f42887_e_029,1,2.492745807,1,10,2,4
14,1,66,f42887_e_052,1,2.688476831,1,10,2,4
14,1,67,f42887_e_209,1,4.924590793,1,10,1,4
14,1,68,f42887_e_024,1,1.826764936,1,9,2,3
14,1,69,f42887_e_206,1,2.506111511,1,9,1,3
14,1,70,f42887_e_067,1,1.168592181,1,9,2,3
14,1,71,f42887_e_229,1,1.437431187,1,9,2,3
14,1,72,f42887_e_298,1,2.065773235,1,9,2,3
14,1,73,f42887_e_165,1,3.098900115,1,10,1,4
14,1,74,f42887_e_058,1,1.666227198,1,9,1,3
14,1,75,f42887_e_193,1,2.836013068,1,10,2,4
14,1,76,f42887_e_169,1,1.340332491,1,9,2,3
14,1,77,f42887_e_127,1,1.390591507,1,10,1,4
14,1,78,f42887_e_196,1,1.58819113,1,10,2,4
14,1,79,f42887_e_243,1,1.607971588,1,9,2,3
14,1,80,f42887_e_061,1,4.982977964,1,10,2,4
14,1,81,f42887_e_083,1,1.60442038,1,9,1,3
14,1,82,f42887_e_142,1,1.841758821,1,9,2,3
14,1,83,f42887_e_289,1,1.539570869,1,10,1,4
14,1,84,f42887_e_175,1,4.040556487,1,10,1,4
14,1,85,f42887_e_234,1,6.242143676,1,10,2,4
14,1,86,f42887_e_118,1,2.76808603,1,10,2,4
14,1,87,f42887_e_065,1,2.670857017,1,10,2,4
14,1,88,f42887_e_033,1,1.673105369,1,9,1,3
14,1,89,f42887_e_239,1,3.413847285,1,10,2,4
14,1,90,f42887_e_081,1,5.963274327,1,10,1,4
14,1,91,f42887_e_271,1,2.508314143,1,10,2,4
14,1,92,f42887_e_236,1,1.765639249,1,9,2,3
14,1,93,f42887_e_041,1,1.250622037,1,9,2,3
14,1,94,f42887_e_276,1,1.215223479,1,9,2,3
14,1,95,f42887_e_237,1,4.71624082,1,10,1,4
14,1,96,f42887_e_233,1,2.483803407,1,10,2,4
14,1,97,f42887_e_161,1,3.64058,1,10,1,4
14,1,98,f42887_e_272,1,2.015108651,1,9,1,3
14,1,99,f42887_e_112,1,1.247296006,1,9,2,3
14,1,100,f42887_e_076,1,2.286037078,1,9,1,3
14,1,101,f42887_e_129,1,7.463349904,1,10,2,4
14,1,102,f42887_e_050,1,1.548515758,1,9,1,3
14,1,103,f42887_e_051,1,1.756679742,1,9,1,3
14,1,104,f42887_e_124,1,6.38628297,1,10,2,4
14,1,105,f42887_e_047,1,9.785783287,1,10,2,4
14,1,106,f42887_e_183,1,1.719620035,1,9,2,3
14,1,107,f42887_e_016,1,1.781559036,1,10,1,4
14,1,108,f42887_e_111,1,1.235062098,1,9,2,3
14,1,109,f42887_e_235,1,2.273874704,1,10,2,4
14,1,110,f42887_e_204,1,10.00887678,-1,10,2,0
14,1,111,f42887_e_094,1,1.313265805,1,9,2,3
14,1,112,f42887_e_077,1,3.329642789,1,10,1,4
14,1,113,f42887_e_072,1,3.213487064,1,10,1,4
14,1,114,f42887_e_100,1,9.61689626,1,10,2,4
14,1,115,f42887_e_125,1,1.916292201,1,9,2,3
14,1,116,f42887_e_190,1,1.860869035,1,10,1,4
14,1,117,f42887_e_269,1,1.422936175,1,9,1,3
14,1,118,f42887_e_259,1,1.482104624,1,10,1,4
14,1,119,f42887_e_217,1,5.085429597,1,10,2,4
14,1,120,f42887_e_037,1,2.117981093,1,10,1,4
14,1,121,f42887_e_075,1,3.563529549,1,10,2,4
14,1,122,f42887_e_002,1,1.344049783,1,9,2,3
14,1,123,f42887_e_275,1,1.045055367,1,9,2,3
14,1,124,f42887_e_288,1,1.828288304,1,10,1,4
14,1,125,f42887_e_143,1,1.356129737,1,9,2,3
14,1,126,f42887_e_137,1,2.555141383,1,9,1,3
14,1,127,f42887_e_250,1,1.116907768,1,9,2,3
14,1,128,f42887_e_188,1,1.611961954,1,9,1,3
14,1,129,f42887_e_031,1,1.492481442,1,9,1,3
14,1,130,f42887_e_078,1,2.064343173,1,9,2,3
14,1,131,f42887_e_046,1,1.47583045,1,9,2,3
14,1,132,f42887_e_049,1,2.28161844,1,10,1,4
14,1,133,f42887_e_089,1,2.046277048,1,10,1,4
14,1,134,f42887_e_000,1,1.397195361,1,10,1,4
14,1,135,f42887_e_162,1,1.923397416,1,9,2,3
14,1,136,f42887_e_063,1,2.041427649,1,9,1,3
14,1,137,f42887_e_043,1,2.158677226,1,10,2,4
14,1,138,f42887_e_221,1,2.217778184,1,10,2,4
14,1,139,f42887_e_060,1,1.746706315,1,9,2,3
14,1,140,f42887_e_225,1,1.790582923,1,10,1,4
14,1,141,f42887_e_220,1,1.672088961,1,10,2,4
14,1,142,f42887_e_273,1,2.062669583,1,10,2,4
14,1,143,f42887_e_279,1,2.461919842,1,9,2,3
14,1,144,f42887_e_027,1,1.57996687,1,10,2,4
14,1,145,f42887_e_253,1,1.380372376,1,9,1,3
14,1,146,f42887_e_294,1,1.412013521,1,9,2,3
14,1,147,f42887_e_186,1,2.074795568,1,10,2,4
14,1,148,f42887_e_106,1,1.378524305,1,10,1,4
14,1,149,f42887_e_107,1,2.330319565,1,10,1,4
14,1,150,f42887_e_071,1,2.147012793,1,10,2,4
14,1,151,f42887_e_168,1,1.611952623,1,10,1,4
14,1,152,f42887_e_130,1,1.2622986,1,9,2,3
14,1,153,f42887_e_197,1,1.989144836,1,10,2,4
14,1,154,f42887_e_261,1,1.190845858,1,9,1,3
14,1,155,f42887_e_055,1,1.355005717,1,9,2,3
14,1,156,f42887_e_192,1,1.176059111,1,10,2,4
14,1,157,f42887_e_085,1,1.170019134,1,9,1,3
14,1,158,f42887_e_087,1,1.657320253,1,10,1,4
14,1,159,f42887_e_200,1,1.661915861,1,10,1,4
14,1,160,f42887_e_224,1,1.741159613,1,9,2,3
14,1,161,f42887_e_103,1,1.797411643,1,9,1,3
14,1,162,f42887_e_248,1,1.704709503,1,10,2,4
14,1,163,f42887_e_011,1,1.497187772,1,10,2,4
14,1,164,f42887_e_264,1,1.757544995,1,10,1,4
14,1,165,f42887_e_109,1,1.698920517,1,10,1,4
14,1,166,f42887_e_213,1,2.757666914,1,10,2,4
14,1,167,f42887_e_008,1,1.473367185,1,9,1,3
14,1,168,f42887_e_128,1,1.070466814,1,9,2,3
14,1,169,f42887_e_173,1,1.592565603,1,9,2,3
14,1,170,f42887_e_140,1,2.450570159,1,10,2,4
14,1,171,f42887_e_286,1,2.475392536,1,9,2,3
14,1,172,f42887_e_005,1,2.083140191,1,10,1,4
14,1,173,f42887_e_184,1,1.293447402,1,9,2,3
14,1,174,f42887_e_139,1,2.329544196,1,10,2,4
14,1,175,f42887_e_247,1,0.965648952,1,9,2,3
14,1,176,f42887_e_226,1,1.762711321,1,9,1,3
14,1,177,f42887_e_203,1,1.601327613,1,9,1,3
14,1,178,f42887_e_082,1,1.381174493,1,10,1,4
14,1,179,f42887_e_086,1,1.374149209,1,9,1,3
14,1,180,f42887_e_073,1,2.519842973,1,10,2,4
14,1,181,f42887_e_068,1,1.640095122,1,10,1,4
14,1,182,f42887_e_292,1,1.720954615,1,9,1,3
14,1,183,f42887_e_268,1,2.126772338,1,10,2,4
14,1,184,f42887_e_098,1,2.494777379,1,10,1,4
14,1,185,f42887_e_198,1,1.341400839,1,10,1,4
14,1,186,f42887_e_102,1,1.285708332,1,9,2,3
14,1,187,f42887_e_159,1,1.426285843,1,9,2,3
14,1,188,f42887_e_021,1,1.745350586,1,9,2,3
14,1,189,f42887_e_210,1,1.16840557,1,9,1,3
14,1,190,f42887_e_014,1,1.376020918,1,9,2,3
14,1,191,f42887_e_015,1,2.007572676,1,10,1,4
14,1,192,f42887_e_079,1,1.434786909,1,10,1,4
14,1,193,f42887_e_219,1,1.197796186,1,10,1,4
14,1,194,f42887_e_262,1,1.486716094,1,10,1,4
14,1,195,f42887_e_270,1,1.507256992,1,10,1,4
14,1,196,f42887_e_277,1,1.489560357,1,10,1,4
14,1,197,f42887_e_152,1,5.143762651,1,10,2,4
14,1,198,f42887_e_242,1,1.623134356,1,9,1,3
14,1,199,f42887_e_007,1,1.692540597,1,9,2,3
14,1,200,f42887_e_001,1,1.388899567,1,10,1,4
14,1,201,f42887_e_132,1,2.28956185,1,10,2,4
14,1,202,f42887_e_095,1,1.91787715,1,10,1,4
14,1,203,f42887_e_039,1,1.469707742,1,10,2,4
14,1,204,f42887_e_030,1,1.544270979,1,9,1,3
14,1,205,f42887_e_296,1,1.162410069,1,9,1,3
14,1,206,f42887_e_207,1,1.394295114,1,10,1,4
14,1,207,f42887_e_164,1,1.48578055,1,10,1,4
14,1,208,f42887_e_048,1,1.447829776,1,9,1,3
14,1,209,f42887_e_154,1,1.456361943,1,9,1,3
14,1,210,f42887_e_003,1,1.160544892,1,9,1,3
14,1,211,f42887_e_090,1,1.293255504,1,9,1,3
14,1,212,f42887_e_252,1,1.600992335,1,10,2,4
14,1,213,f42887_e_228,1,1.829962827,1,10,1,4
14,1,214,f42887_e_057,1,1.140037272,1,10,1,4
14,1,215,f42887_e_147,1,10.00611151,-1,10,2,0
14,1,216,f42887_e_123,1,5.380002575,1,10,1,4
14,1,217,f42887_e_174,1,2.452924257,1,10,1,4
14,1,218,f42887_e_254,1,1.417911051,1,10,1,4
14,1,219,f42887_e_074,1,1.496394364,1,10,1,4
14,1,220,f42887_e_150,1,1.708405023,1,9,2,3
14,1,221,f42887_e_116,1,2.296275182,1,10,2,4
14,1,222,f42887_e_151,1,2.700540301,1,10,1,4
14,1,223,f42887_e_283,1,1.0710733,1,9,1,3
14,1,224,f42887_e_084,1,2.869448788,1,10,2,4
14,1,225,f42887_e_249,1,3.032285886,1,10,2,4
14,1,226,f42887_e_126,1,2.364757698,1,10,1,4
14,1,227,f42887_e_144,1,1.508614587,1,9,1,3
14,1,228,f42887_e_088,1,1.664589375,1,9,2,3
14,1,229,f42887_e_222,1,2.758411181,1,10,1,4
14,1,230,f42887_e_267,1,1.565564853,1,10,2,4
14,1,231,f42887_e_062,1,1.193900681,1,9,2,3
14,1,232,f42887_e_240,1,1.805409792,1,10,2,4
14,1,233,f42887_e_032,1,2.270050422,1,10,2,4
14,1,234,f42887_e_238,1,1.417724751,1,9,1,3
14,1,235,f42887_e_246,1,2.021706906,1,10,2,4
14,1,236,f42887_e_202,1,1.183430247,1,9,2,3
14,1,237,f42887_e_201,1,1.795163602,1,10,1,4
14,1,238,f42887_e_216,1,1.591613265,1,10,1,4
14,1,239,f42887_e_013,1,1.008566379,1,9,2,3
14,1,240,f42887_e_160,1,1.38438047,1,9,1,3
14,1,241,f42887_e_113,1,1.932666074,1,9,2,3
14,1,242,f42887_e_092,1,1.567119634,1,10,2,4
14,1,243,f42887_e_265,1,2.029596199,1,10,2,4
14,1,244,f42887_e_157,1,2.15229855,1,10,1,4
14,1,245,f42887_e_023,1,1.493135824,1,9,1,3
14,1,246,f42887_e_155,1,1.359014744,1,10,1,4
14,1,247,f42887_e_291,1,3.103479549,1,10,2,4
14,1,248,f42887_e_026,1,2.405838562,1,10,2,4
14,1,249,f42887_e_069,1,1.100414152,1,9,1,3
14,1,250,f42887_e_101,1,6.184025225,1,10,2,4
14,1,251,f42887_e_115,1,1.534373441,1,9,1,3
14,1,252,f42887_e_278,1,1.56377432,1,10,1,4
14,1,253,f42887_e_080,1,1.265115805,1,9,2,3
14,1,254,f42887_e_176,1,1.433291221,1,10,2,4
14,1,255,f42887_e_194,1,1.792802661,1,9,2,3
14,1,256,f42887_e_141,1,1.678615993,1,10,1,4
14,1,257,f42887_e_241,1,1.134518251,1,9,2,3
14,1,258,f42887_e_211,1,1.289542567,1,9,2,3
14,1,259,f42887_e_282,1,1.688098322,1,9,1,3
14,1,260,f42887_e_019,1,1.949091577,1,10,2,4
14,1,261,f42887_e_096,1,2.277901148,1,10,1,4
14,1,262,f42887_e_009,1,2.103099485,1,9,2,3
14,1,263,f42887_e_028,1,1.582614881,1,10,1,4
14,1,264,f42887_e_117,1,2.241532524,1,9,2,3
14,1,265,f42887_e_040,1,1.572714855,1,10,1,4
14,1,266,f42887_e_110,1,1.51991233,1,9,2,3
14,1,267,f42887_e_258,1,1.295601205,1,9,1,3
14,1,268,f42887_e_012,1,1.963609605,1,9,2,3
14,1,269,f42887_e_205,1,1.630001953,1,10,2,4
14,1,270,f42887_e_070,1,1.20712456,1,9,2,3
14,1,271,f42887_e_025,1,2.29577382,1,10,1,4
14,1,272,f42887_e_036,1,1.538992064,1,9,1,3
14,1,273,f42887_e_045,1,1.289565582,1,9,2,3
14,1,274,f42887_e_260,1,1.346820335,1,10,1,4
14,1,275,f42887_e_187,1,2.589005376,1,10,1,4
14,1,276,f42887_e_153,1,2.169747304,1,9,1,3
14,1,277,f42887_e_004,1,1.940798583,1,9,1,3
14,1,278,f42887_e_208,1,1.91112152,1,9,1,3
14,1,279,f42887_e_114,1,1.608301889,1,9,1,3
14,1,280,f42887_e_299,1,1.608463619,1,9,2,3
14,1,281,f42887_e_189,1,1.676381637,1,10,2,4
14,1,282,f42887_e_231,1,1.930547728,1,9,1,3
14,1,283,f42887_e_293,1,2.077032723,1,9,1,3
14,1,284,f42887_e_053,1,2.158120192,1,10,2,4
14,1,285,f42887_e_138,1,1.652246921,1,10,1,4
14,1,286,f42887_e_166,1,1.364721931,1,10,2,4
14,1,287,f42887_e_171,1,1.438066287,1,9,2,3
14,1,288,f42887_e_056,1,1.666867585,1,9,1,3
14,1,289,f42887_e_034,1,1.50328622,1,9,1,3
14,1,290,f42887_e_214,1,1.366197713,1,10,1,4
14,1,291,f42887_e_170,1,1.870585872,0,10,1,3
14,1,292,f42887_e_215,1,1.898463694,1,9,2,3
14,1,293,f42887_e_245,1,1.514224115,1,10,1,4
14,1,294,f42887_e_133,1,1.287862134,1,9,2,3
14,1,295,f42887_e_244,1,1.700117627,1,10,2,4
14,1,296,f42887_e_223,1,1.566114111,1,10,2,4
14,1,297,f42887_e_119,1,1.449635549,1,9,2,3
14,1,298,f42887_e_257,1,1.574379114,0,9,2,4
14,1,299,f42887_e_120,1,1.873016169,1,9,2,3
14,1,300,f42887_e_232,1,1.542609208,1,9,2,3
14,2,301,f42887_e_205,1,1.790428658,1,9,1,3
14,2,302,f42887_e_046,1,1.359084723,1,10,1,4
14,2,303,f42887_e_076,1,1.358528,1,9,2,3
14,2,304,f42887_e_174,1,1.358795787,1,9,2,3
14,2,305,f42887_e_258,1,1.088034687,1,9,2,3
14,2,306,f42887_e_208,1,1.852791888,1,10,1,4
14,2,307,f42887_e_104,1,1.287910031,1,10,1,4
14,2,308,f42887_e_138,1,1.346777414,1,10,2,4
14,2,309,f42887_e_112,1,1.79345891,1,9,2,3
14,2,310,f42887_e_124,1,0.923485434,1,9,2,3
14,2,311,f42887_e_245,1,1.123216154,1,9,2,3
14,2,312,f42887_e_280,1,1.381204039,1,10,1,4
14,2,313,f42887_e_109,1,1.311245119,1,9,2,3
14,2,314,f42887_e_156,1,1.193825414,1,10,2,4
14,2,315,f42887_e_193,1,1.346946608,1,10,2,4
14,2,316,f42887_e_271,1,1.241353067,1,10,1,4
14,2,317,f42887_e_269,1,1.993936386,1,10,2,4
14,2,318,f42887_e_038,1,1.252464199,1,10,2,4
14,2,319,f42887_e_229,1,1.251672346,1,10,1,4
14,2,320,f42887_e_162,1,1.463543047,1,10,2,4
14,2,321,f42887_e_237,1,2.299275887,1,10,1,4
14,2,322,f42887_e_075,1,1.545586276,1,9,1,3
14,2,323,f42887_e_291,1,1.181713425,1,9,2,3
14,2,324,f42887_e_212,1,0.993398324,1,9,1,3
14,2,325,f42887_e_018,1,1.581382004,1,10,2,4
14,2,326,f42887_e_019,1,1.840892324,1,9,1,3
14,2,327,f42887_e_117,1,1.146522939,1,10,2,4
14,2,328,f42887_e_153,1,2.005064623,1,10,1,4
14,2,329,f42887_e_123,1,1.99338495,1,9,1,3
14,2,330,f42887_e_282,1,1.370117789,1,9,1,3
14,2,331,f42887_e_165,1,1.440289135,1,9,1,3
14,2,332,f42887_e_191,1,1.369889501,1,10,1,4
14,2,333,f42887_e_295,1,0.94598015,1,10,1,4
14,2,334,f42887_e_061,1,1.475306695,1,9,1,3
14,2,335,f42887_e_221,1,1.016437322,1,9,2,3
14,2,336,f42887_e_202,1,1.263268044,1,9,2,3
14,2,337,f42887_e_192,1,1.816279573,1,9,1,3
14,2,338,f42887_e_091,1,2.569900449,1,10,2,4
14,2,339,f42887_e_045,1,1.745717588,1,9,2,3
14,2,340,f42887_e_225,1,1.15743844,1,9,1,3
14,2,341,f42887_e_118,1,1.404364023,1,10,2,4
14,2,342,f42887_e_023,1,1.852046066,1,10,2,4
14,2,343,f42887_e_286,1,2.063118693,1,10,1,4
14,2,344,f42887_e_203,1,1.603947632,1,9,1,3
14,2,345,f42887_e_127,1,1.41578493,1,10,1,4
14,2,346,f42887_e_037,1,1.627348344,1,10,1,4
14,2,347,f42887_e_001,1,1.075023544,1,9,1,3
14,2,348,f42887_e_072,1,1.585585417,1,9,1,3
14,2,349,f42887_e_296,1,1.074360142,1,9,2,3
14,2,350,f42887_e_084,1,1.36851169,1,10,2,4
14,2,351,f42887_e_096,1,1.615558259,1,10,1,4
14,2,352,f42887_e_186,1,1.404023458,1,9,2,3
14,2,353,f42887_e_059,1,1.557364542,1,10,1,4
14,2,354,f42887_e_216,1,2.956982114,1,9,1,3
14,2,355,f42887_e_024,1,1.439303207,1,10,2,4
14,2,356,f42887_e_068,1,1.169048445,1,9,1,3
14,2,357,f42887_e_020,1,1.062945456,0,9,1,4
14,2,358,f42887_e_144,1,1.192191946,1,10,1,4
14,2,359,f42887_e_189,1,1.474935961,1,10,1,4
14,2,360,f42887_e_121,1,1.521702241,1,10,2,4
14,2,361,f42887_e_255,1,1.721600911,1,9,2,3
14,2,362,f42887_e_088,1,1.333357593,1,10,1,4
14,2,363,f42887_e_217,1,1.674550672,1,9,2,3
14,2,364,f42887_e_259,1,1.886668321,1,10,1,4
14,2,365,f42887_e_240,1,1.439533982,1,9,1,3
14,2,366,f42887_e_005,1,1.615653742,1,9,1,3
14,2,367,f42887_e_145,1,1.344585668,1,9,1,3
14,2,368,f42887_e_054,1,1.508892016,1,10,2,4
14,2,369,f42887_e_160,1,2.944922998,1,10,2,4
14,2,370,f42887_e_211,1,1.191766161,1,9,2,3
14,2,371,f42887_e_015,1,2.67469965,1,9,1,3
14,2,372,f42887_e_171,1,2.13270377,1,10,2,4
14,2,373,f42887_e_086,1,1.356441377,1,10,1,4
14,2,374,f42887_e_197,1,1.414810198,1,10,1,4
14,2,375,f42887_e_187,1,1.330400119,1,10,1,4
14,2,376,f42887_e_214,1,1.733536242,1,9,2,3
14,2,377,f42887_e_170,1,1.332788118,1,9,1,3
14,2,378,f42887_e_209,1,1.602682098,1,10,2,4
14,2,379,f42887_e_261,1,1.485322109,1,10,1,4
14,2,380,f42887_e_173,1,2.012932144,1,10,1,4
14,2,381,f42887_e_095,1,2.214929256,1,10,2,4
14,2,382,f42887_e_213,1,2.108560968,1,9,1,3
14,2,383,f42887_e_234,1,1.756067347,1,9,2,3
14,2,384,f42887_e_276,1,1.956305027,1,10,1,4
14,2,385,f42887_e_097,1,1.403211389,1,10,1,4
14,2,386,f42887_e_101,1,3.838645838,1,10,2,4
14,2,387,f42887_e_115,1,2.169434419,1,10,2,4
14,2,388,f42887_e_158,1,1.108695328,1,9,2,3
14,2,389,f42887_e_256,1,1.567287273,1,9,1,3
14,2,390,f42887_e_114,1,2.591070849,1,9,1,3
14,2,391,f42887_e_057,1,1.195537259,1,10,1,4
14,2,392,f42887_e_056,1,1.36763524,1,9,1,3
14,2,393,f42887_e_152,1,2.061340601,1,9,2,3
14,2,394,f42887_e_219,1,2.120602978,1,10,2,4
14,2,395,f42887_e_000,1,3.131583793,1,10,2,4
14,2,396,f42887_e_125,1,3.614412779,1,10,1,4
14,2,397,f42887_e_194,1,1.766982848,1,9,1,3
14,2,398,f42887_e_041,1,1.414111029,1,10,1,4
14,2,399,f42887_e_008,1,1.391010138,1,10,1,4
14,2,400,f42887_e_297,1,1.473372472,1,10,1,4
14,2,401,f42887_e_275,1,1.370660827,1,10,1,4
14,2,402,f42887_e_206,1,1.461380847,1,9,2,3
14,2,403,f42887_e_289,1,1.29675726,1,10,1,4
14,2,404,f42887_e_106,1,1.01441197,1,9,1,3
14,2,405,f42887_e_055,1,1.285014761,1,10,2,4
14,2,406,f42887_e_151,1,1.484947021,1,9,1,3
14,2,407,f42887_e_017,1,1.519490589,1,9,2,3
14,2,408,f42887_e_135,1,1.319447917,1,9,1,3
14,2,409,f42887_e_164,1,1.296427581,1,10,1,4
14,2,410,f42887_e_016,1,1.390797712,1,9,2,3
14,2,411,f42887_e_247,1,1.213897297,1,9,2,3
14,2,412,f42887_e_199,1,1.461401063,1,10,1,4
14,2,413,f42887_e_278,1,1.21439306,1,9,2,3
14,2,414,f42887_e_132,1,1.190369378,1,10,1,4
14,2,415,f42887_e_241,1,1.296188718,1,9,1,3
14,2,416,f42887_e_272,1,1.190664223,0,10,2,3
14,2,417,f42887_e_080,1,1.355239913,1,10,1,4
14,2,418,f42887_e_142,1,1.354952532,1,9,1,3
14,2,419,f42887_e_284,1,1.484716557,1,9,2,3
14,2,420,f42887_e_107,1,1.082390326,1,10,1,4
14,2,421,f42887_e_287,1,1.625329213,1,9,1,3
14,2,422,f42887_e_030,1,1.354916454,1,9,1,3
14,2,423,f42887_e_010,1,1.602364548,1,9,1,3
14,2,424,f42887_e_028,1,1.82498249,1,9,1,3
14,2,425,f42887_e_047,1,1.613780789,1,9,1,3
14,2,426,f42887_e_071,1,1.613828375,1,9,1,3
14,2,427,f42887_e_226,1,1.164103875,1,9,1,3
14,2,428,f42887_e_169,1,1.389958896,1,9,1,3
14,2,429,f42887_e_224,1,1.466958651,1,9,1,3
14,2,430,f42887_e_065,1,2.849135867,1,10,2,4
14,2,431,f42887_e_039,1,1.142020637,1,10,1,4
14,2,432,f42887_e_128,1,1.825026654,1,9,2,3
14,2,433,f42887_e_099,1,2.848539955,1,10,2,4
14,2,434,f42887_e_085,1,1.377292361,1,9,2,3
14,2,435,f42887_e_218,1,1.283715948,1,9,1,3
14,2,436,f42887_e_231,1,1.742131546,1,9,1,3
14,2,437,f42887_e_026,1,1.555032526,1,9,2,3
14,2,438,f42887_e_184,1,1.995309532,1,10,1,4
14,2,439,f42887_e_074,1,1.377305735,1,9,2,3
14,2,440,f42887_e_119,1,1.519342233,1,10,1,4
14,2,441,f42887_e_281,1,1.10610019,1,9,1,3
14,2,442,f42887_e_006,1,1.095035711,1,10,1,4
14,2,443,f42887_e_163,1,1.660136214,1,10,1,4
14,2,444,f42887_e_244,1,1.142741888,1,9,1,3
14,2,445,f42887_e_154,1,1.22489895,1,10,1,4
14,2,446,f42887_e_204,1,2.48379843,1,10,2,4
14,2,447,f42887_e_161,1,1.565949272,1,9,1,3
14,2,448,f42887_e_105,1,4.373347093,1,10,2,4
14,2,449,f42887_e_262,1,2.648247847,1,9,1,3
14,2,450,f42887_e_273,1,1.707188941,1,10,1,4
14,2,451,f42887_e_198,1,1.118466903,1,9,1,3
14,2,452,f42887_e_136,1,1.459730583,1,10,2,4
14,2,453,f42887_e_252,1,1.767174435,1,9,1,3
14,2,454,f42887_e_180,1,2.366112494,1,9,1,3
14,2,455,f42887_e_266,1,1.353083312,1,9,1,3
14,2,456,f42887_e_013,1,1.447589048,1,9,2,3
14,2,457,f42887_e_079,1,1.459366381,1,10,1,4
14,2,458,f42887_e_060,1,1.118593799,1,9,1,3
14,2,459,f42887_e_092,1,1.318554984,1,10,2,4
14,2,460,f42887_e_087,1,1.212349047,1,9,2,3
14,2,461,f42887_e_250,1,1.012653783,1,9,1,3
14,2,462,f42887_e_053,1,1.353875165,1,10,2,4
14,2,463,f42887_e_172,1,1.424298747,1,9,1,3
14,2,464,f42887_e_268,1,1.565009374,1,10,2,4
14,2,465,f42887_e_110,1,1.294350289,1,10,1,4
14,2,466,f42887_e_168,1,1.424410402,1,10,1,4
14,2,467,f42887_e_277,1,1.164971927,1,10,1,4
14,2,468,f42887_e_134,1,1.058687614,1,9,1,3
14,2,469,f42887_e_131,1,1.117018491,1,9,1,3
14,2,470,f42887_e_257,1,1.364493332,1,9,2,3
14,2,471,f42887_e_155,1,1.541664023,1,10,1,4
14,2,472,f42887_e_242,1,1.753395699,1,10,1,4
14,2,473,f42887_e_159,1,1.059225987,1,9,1,3
14,2,474,f42887_e_182,1,2.094027079,0,10,2,3
14,2,475,f42887_e_232,1,1.270864357,1,10,1,4
14,2,476,f42887_e_011,1,1.518152899,1,9,2,3
14,2,477,f42887_e_177,1,1.388487468,1,9,1,3
14,2,478,f42887_e_274,1,1.353102284,1,10,1,4
14,2,479,f42887_e_033,1,2.017098547,1,10,2,4
14,2,480,f42887_e_082,1,0.999888966,1,9,2,3
14,2,481,f42887_e_063,1,1.95191127,1,10,2,4
14,2,482,f42887_e_285,1,1.917169894,1,10,2,4
14,2,483,f42887_e_228,1,1.365229202,1,9,1,3
14,2,484,f42887_e_103,1,1.305311199,1,10,2,4
14,2,485,f42887_e_148,1,1.376383254,1,9,2,3
14,2,486,f42887_e_149,1,1.655118554,1,9,1,3
14,2,487,f42887_e_263,1,1.129586433,1,9,2,3
14,2,488,f42887_e_078,1,1.199570235,1,9,1,3
14,2,489,f42887_e_150,1,1.14045497,1,9,2,3
14,2,490,f42887_e_004,1,1.211553773,1,10,2,4
14,2,491,f42887_e_200,1,1.117267927,1,9,1,3
14,2,492,f42887_e_298,1,1.682196748,1,10,2,4
14,2,493,f42887_e_022,1,1.22289848,1,10,1,4
14,2,494,f42887_e_265,1,1.505348894,1,9,1,3
14,2,495,f42887_e_267,1,1.341213295,1,10,1,4
14,2,496,f42887_e_166,1,1.411220424,1,9,1,3
14,2,497,f42887_e_227,1,1.540806856,1,9,1,3
14,2,498,f42887_e_090,1,1.399664847,1,9,1,3
14,2,499,f42887_e_207,1,1.574218317,1,10,1,4
14,2,500,f42887_e_051,1,1.152525905,1,9,2,3
14,2,501,f42887_e_120,1,2.151374515,1,9,1,3
14,2,502,f42887_e_249,1,9.870329903,1,10,2,4
14,2,503,f42887_e_178,1,1.645437485,1,9,2,3
14,2,504,f42887_e_049,1,2.187441451,1,10,2,4
14,2,505,f42887_e_062,1,1.187637703,1,9,2,3
14,2,506,f42887_e_299,1,1.340688296,1,10,1,4
14,2,507,f42887_e_143,1,1.693840032,1,9,1,3
14,2,508,f42887_e_157,1,1.340832298,1,10,1,4
14,2,509,f42887_e_239,1,1.187082225,1,9,1,3
14,2,510,f42887_e_027,1,1.775705981,1,10,1,4
14,2,511,f42887_e_031,1,0.96417317,1,9,1,3
14,2,512,f42887_e_029,1,1.246603679,1,9,1,3
14,2,513,f42887_e_070,1,1.434906962,1,10,2,4
14,2,514,f42887_e_129,1,1.413988176,1,9,2,3
14,2,515,f42887_e_185,1,1.281550327,1,9,2,3
14,2,516,f42887_e_230,1,1.622312335,1,10,1,4
14,2,517,f42887_e_294,1,1.916685639,1,10,2,4
14,2,518,f42887_e_290,1,1.787194067,1,9,1,3
14,2,519,f42887_e_064,1,1.681429154,1,10,1,4
14,2,520,f42887_e_081,1,1.387255213,1,9,2,3
14,2,521,f42887_e_021,1,2.292610763,1,10,2,4
14,2,522,f42887_e_052,1,1.398902541,1,9,2,3
14,2,523,f42887_e_042,1,1.442143427,1,10,2,4
14,2,524,f42887_e_067,1,1.316115978,1,10,1,4
14,2,525,f42887_e_175,1,1.410589989,1,10,2,4
14,2,526,f42887_e_058,1,1.528333153,1,10,2,4
14,2,527,f42887_e_215,1,1.433966753,1,10,1,4
14,2,528,f42887_e_069,1,1.198739816,1,10,1,4
14,2,529,f42887_e_188,1,1.398596498,1,10,2,4
14,2,530,f42887_e_253,1,0.913428032,1,9,2,3
14,2,531,f42887_e_133,1,1.998238392,1,10,2,4
14,2,532,f42887_e_195,1,1.432835891,1,9,2,3
14,2,533,f42887_e_014,1,1.597766764,1,9,1,3
14,2,534,f42887_e_248,1,1.339707655,1,10,2,4
14,2,535,f42887_e_032,1,1.445315814,1,9,2,3
14,2,536,f42887_e_233,1,1.127764487,1,9,2,3
14,2,537,f42887_e_043,1,1.566866154,1,9,1,3
14,2,538,f42887_e_235,1,1.539582688,1,10,1,4
14,2,539,f42887_e_246,1,1.481185876,1,9,2,3
14,2,540,f42887_e_293,1,1.315229575,1,9,2,3
14,2,541,f42887_e_183,1,1.245414345,1,9,1,3
14,2,542,f42887_e_264,1,1.221776637,1,9,1,3
14,2,543,f42887_e_181,1,1.104328318,1,10,2,4
14,2,544,f42887_e_102,1,1.268494086,1,10,1,4
14,2,545,f42887_e_292,1,1.479885197,1,10,1,4
14,2,546,f42887_e_048,1,1.26853172,1,9,1,3
14,2,547,f42887_e_113,1,2.314492773,1,10,2,4
14,2,548,f42887_e_179,1,1.327856611,1,9,1,3
14,2,549,f42887_e_243,1,1.350761871,1,10,1,4
14,2,550,f42887_e_222,1,0.880844502,1,10,1,4
14,2,551,f42887_e_254,1,1.198057752,1,10,1,4
14,2,552,f42887_e_012,1,1.29212122,1,10,1,4
14,2,553,f42887_e_007,1,1.385805245,1,10,2,4
14,2,554,f42887_e_141,1,1.962335362,1,9,1,3
14,2,555,f42887_e_116,1,1.362065523,1,9,1,3
14,2,556,f42887_e_146,1,1.280476692,1,10,2,4
14,2,557,f42887_e_270,1,0.950646669,1,10,1,4
14,2,558,f42887_e_251,1,0.903416972,1,10,1,4
14,2,559,f42887_e_147,1,1.291511624,1,10,1,4
14,2,560,f42887_e_002,1,1.550413903,1,10,2,4
14,2,561,f42887_e_040,1,1.938286488,1,9,1,3
14,2,562,f42887_e_093,1,1.573922228,1,9,1,3
14,2,563,f42887_e_288,1,1.021268059,1,10,1,4
14,2,564,f42887_e_066,1,1.103420767,1,9,1,3
14,2,565,f42887_e_210,1,1.737888011,1,9,2,3
14,2,566,f42887_e_283,1,1.65623511,1,9,2,3
14,2,567,f42887_e_111,1,1.220559933,1,9,2,3
14,2,568,f42887_e_100,1,1.664124402,1,9,2,3
14,2,569,f42887_e_201,1,1.162102472,1,9,2,3
14,2,570,f42887_e_094,1,1.138165253,1,9,2,3
14,2,571,f42887_e_077,1,1.433061379,1,9,2,3
14,2,572,f42887_e_073,1,1.455986233,1,10,1,4
14,2,573,f42887_e_279,1,1.808967842,1,10,1,4
14,2,574,f42887_e_260,1,1.361235415,1,9,2,3
14,2,575,f42887_e_167,1,1.632131496,1,9,2,3
14,2,576,f42887_e_137,1,1.267491052,1,10,2,4
14,2,577,f42887_e_044,1,1.219889999,1,9,2,3
14,2,578,f42887_e_126,1,1.605391068,1,10,1,4
14,2,579,f42887_e_130,1,2.020130976,1,9,1,3
14,2,580,f42887_e_176,1,1.715131418,1,9,2,3
14,2,581,f42887_e_025,1,1.820713762,1,9,2,3
14,2,582,f42887_e_220,1,1.032121979,1,9,2,3
14,2,583,f42887_e_122,1,1.361473344,1,9,1,3
14,2,584,f42887_e_098,1,1.802267573,1,9,1,3
14,2,585,f42887_e_236,1,1.867071364,1,9,1,3
14,2,586,f42887_e_140,1,1.818680946,1,10,1,4
14,2,587,f42887_e_083,1,2.090869931,1,9,1,3
14,2,588,f42887_e_036,1,1.608327704,1,9,1,3
14,2,589,f42887_e_196,1,2.172604008,1,10,2,4
14,2,590,f42887_e_223,1,1.501595835,1,10,1,4
14,2,591,f42887_e_050,1,1.243289467,1,9,1,3
14,2,592,f42887_e_108,1,1.396403197,1,9,1,3
14,2,593,f42887_e_003,1,1.795878322,1,9,2,3
14,2,594,f42887_e_238,1,1.393944907,1,10,2,4
14,2,595,f42887_e_009,1,1.561139061,1,10,2,4
14,2,596,f42887_e_190,1,1.621134197,1,10,2,4
14,2,597,f42887_e_139,1,1.702572806,1,10,2,4
14,2,598,f42887_e_035,1,1.455170432,1,10,1,4
14,2,599,f42887_e_089,1,1.490383,1,9,1,3
14,2,600,f42887_e_034,1,1.266206546,1,10,1,4
17,1,1,f42887_e_015,1,1.476813579,1,10,1,4
17,1,2,f42887_e_151,1,1.533591541,1,10,2,4
17,1,3,f42887_e_283,1,0.586571035,0,9,1,4
17,1,4,f42887_e_294,1,0.736862583,1,10,1,4
17,1,5,f42887_e_249,1,1.927875147,1,9,2,3
17,1,6,f42887_e_136,1,0.62702644,1,10,1,4
17,1,7,f42887_e_150,1,1.766875547,1,9,1,3
17,1,8,f42887_e_270,1,1.426427046,1,10,2,4
17,1,9,f42887_e_184,1,1.386801748,1,10,2,4
17,1,10,f42887_e_222,1,1.556738462,0,9,1,4
17,1,11,f42887_e_264,1,1.778931863,1,9,2,3
17,1,12,f42887_e_159,1,1.156843773,1,10,1,4
17,1,13,f42887_e_248,1,1.196661591,1,10,2,4
17,1,14,f42887_e_020,1,1.746701339,1,9,2,3
17,1,15,f42887_e_076,1,1.536599711,1,9,2,3
17,1,16,f42887_e_291,1,1.676990611,1,10,2,4
17,1,17,f42887_e_183,1,2.251923027,1,10,1,4
17,1,18,f42887_e_226,1,8.499531606,1,9,1,3
17,1,19,f42887_e_258,1,1.195929765,1,9,2,3
17,1,20,f42887_e_060,1,1.965800729,1,9,1,3
17,1,21,f42887_e_261,1,1.586417392,1,9,1,3
17,1,22,f42887_e_267,1,1.906352986,1,10,1,4
17,1,23,f42887_e_008,1,1.356695479,1,10,1,4
17,1,24,f42887_e_016,1,1.696413398,1,9,1,3
17,1,25,f42887_e_144,1,1.336216163,1,10,1,4
17,1,26,f42887_e_091,1,1.515999408,1,10,1,4
17,1,27,f42887_e_255,1,1.576406021,1,9,1,3
17,1,28,f42887_e_122,1,1.43623501,1,10,2,4
17,1,29,f42887_e_101,1,1.49592286,1,10,2,4
17,1,30,f42887_e_050,1,0.815981307,0,10,1,3
17,1,31,f42887_e_171,1,2.035741611,1,9,1,3
17,1,32,f42887_e_195,1,1.726257478,1,10,2,4
17,1,33,f42887_e_282,1,1.925980112,1,10,1,4
17,1,34,f42887_e_188,1,2.0454684,0,9,2,4
17,1,35,f42887_e_178,1,2.064096846,1,9,2,3
17,1,36,f42887_e_186,1,1.785304941,1,9,2,3
17,1,37,f42887_e_044,1,1.755733624,1,10,1,4
17,1,38,f42887_e_296,1,1.796188718,1,10,2,4
17,1,39,f42887_e_106,1,1.566341155,1,10,1,4
17,1,40,f42887_e_066,1,1.914605859,1,10,1,4
17,1,41,f42887_e_277,1,1.552066344,1,10,2,4
17,1,42,f42887_e_054,1,2.435491366,1,10,1,4
17,1,43,f42887_e_064,1,2.646509876,1,10,1,4
17,1,44,f42887_e_058,1,2.395293483,1,10,1,4
17,1,45,f42887_e_062,1,2.048391973,1,9,1,3
17,1,46,f42887_e_273,1,1.84593922,1,9,1,3
17,1,47,f42887_e_285,1,1.475479932,1,10,1,4
17,1,48,f42887_e_142,1,1.418892003,1,10,1,4
17,1,49,f42887_e_229,1,1.745522579,1,10,2,4
17,1,50,f42887_e_143,1,1.415990824,1,9,2,3
17,1,51,f42887_e_100,1,1.523659791,1,9,2,3
17,1,52,f42887_e_127,1,1.350490974,1,9,2,3
17,1,53,f42887_e_039,1,1.695779543,1,9,2,3
17,1,54,f42887_e_067,1,1.724509244,1,9,1,3
17,1,55,f42887_e_224,1,1.946409355,1,9,1,3
17,1,56,f42887_e_193,1,1.334372135,1,9,2,3
17,1,57,f42887_e_105,1,1.892191386,1,10,1,4
17,1,58,f42887_e_236,1,1.665563173,1,9,2,3
17,1,59,f42887_e_299,1,6.13699458,1,10,1,4
17,1,60,f42887_e_047,1,1.97524387,1,10,2,4
17,1,61,f42887_e_112,1,1.495746202,1,10,1,4
17,1,62,f42887_e_242,1,1.541872405,1,10,2,4
17,1,63,f42887_e_103,1,1.524939942,1,9,2,3
17,1,64,f42887_e_029,1,1.533889496,1,9,1,3
17,1,65,f42887_e_141,1,4.736931629,1,9,1,3
17,1,66,f42887_e_233,1,2.866522416,1,9,2,3
17,1,67,f42887_e_114,1,3.545182885,1,10,1,4
17,1,68,f42887_e_041,1,4.376345932,1,9,1,3
17,1,69,f42887_e_070,1,1.564630554,1,9,1,3
17,1,70,f42887_e_202,1,1.531716411,1,10,1,4
17,1,71,f42887_e_228,1,1.985134876,1,10,1,4
17,1,72,f42887_e_290,1,1.394617951,1,10,1,4
17,1,73,f42887_e_006,1,1.354760323,1,10,2,4
17,1,74,f42887_e_166,1,1.314590121,1,10,2,4
17,1,75,f42887_e_167,1,1.343669718,1,10,2,4
17,1,76,f42887_e_057,1,1.564710174,1,10,1,4
17,1,77,f42887_e_126,1,1.282349333,1,9,2,3
17,1,78,f42887_e_086,1,1.503334428,0,10,1,3
17,1,79,f42887_e_243,1,2.184449143,1,9,1,3
17,1,80,f42887_e_293,1,2.065028657,1,10,1,4
17,1,81,f42887_e_119,1,1.454220582,1,10,2,4
17,1,82,f42887_e_005,1,2.010980815,1,10,1,4
17,1,83,f42887_e_042,1,1.820736467,1,10,1,4
17,1,84,f42887_e_092,1,1.359953086,1,10,2,4
17,1,85,f42887_e_203,1,3.490232779,1,9,1,3
17,1,86,f42887_e_120,1,1.357994914,1,10,2,4
17,1,87,f42887_e_081,1,3.669134287,1,10,1,4
17,1,88,f42887_e_298,1,1.50110567,1,10,1,4
17,1,89,f42887_e_170,1,2.408443341,1,10,1,4
17,1,90,f42887_e_130,1,2.748795115,1,10,1,4
17,1,91,f42887_e_147,1,1.407976813,1,10,2,4
17,1,92,f42887_e_268,1,2.318502111,1,9,1,3
17,1,93,f42887_e_204,1,2.988836306,1,9,1,3
17,1,94,f42887_e_139,1,4.189043818,1,10,1,4
17,1,95,f42887_e_245,1,2.998911125,1,9,2,3
17,1,96,f42887_e_098,1,2.808329632,1,10,1,4
17,1,97,f42887_e_156,1,1.726460573,1,10,2,4
17,1,98,f42887_e_206,1,1.307506678,1,9,2,3
17,1,99,f42887_e_266,1,1.368266918,1,9,2,3
17,1,100,f42887_e_009,1,1.3381028,1,9,2,3
17,1,101,f42887_e_287,1,1.379501836,1,9,2,3
17,1,102,f42887_e_280,1,1.363652339,1,9,2,3
17,1,103,f42887_e_162,1,1.1541827,1,9,2,3
17,1,104,f42887_e_219,1,1.428519577,1,10,1,4
17,1,105,f42887_e_096,1,1.12832743,1,10,2,4
17,1,106,f42887_e_160,1,1.287849071,1,9,1,3
17,1,107,f42887_e_071,1,1.434348995,1,10,2,4
17,1,108,f42887_e_165,1,1.59425039,1,9,1,3
17,1,109,f42887_e_190,1,1.133385522,1,10,1,4
17,1,110,f42887_e_246,1,0.978078491,1,10,2,4
17,1,111,f42887_e_237,1,1.77391296,1,9,1,3
17,1,112,f42887_e_102,1,1.184193797,1,10,1,4
17,1,113,f42887_e_180,1,1.193605213,1,10,1,4
17,1,114,f42887_e_208,1,1.114028049,1,10,1,4
17,1,115,f42887_e_028,1,1.707798848,1,9,2,3
17,1,116,f42887_e_218,1,1.123310393,1,10,1,4
17,1,117,f42887_e_001,1,1.283896028,1,10,1,4
17,1,118,f42887_e_048,1,1.273857287,1,10,1,4
17,1,119,f42887_e_216,1,1.364070969,1,9,1,3
17,1,120,f42887_e_149,1,1.073511062,1,10,1,4
17,1,121,f42887_e_113,1,1.663562081,1,9,1,3
17,1,122,f42887_e_260,1,1.192241398,1,10,2,4
17,1,123,f42887_e_215,1,1.668025195,1,10,1,4
17,1,124,f42887_e_026,1,0.996770074,0,9,2,4
17,1,125,f42887_e_194,1,1.393376366,1,9,2,3
17,1,126,f42887_e_118,1,1.323197555,1,10,1,4
17,1,127,f42887_e_257,1,2.774376066,1,10,2,4
17,1,128,f42887_e_284,1,1.446523499,1,9,1,3
17,1,129,f42887_e_238,1,1.116909634,1,9,1,3
17,1,130,f42887_e_131,1,1.98734404,1,9,2,3
17,1,131,f42887_e_079,1,1.432462046,1,10,1,4
17,1,132,f42887_e_271,1,2.52738548,1,9,1,3
17,1,133,f42887_e_269,1,1.507295247,1,10,2,4
17,1,134,f42887_e_133,1,1.267436624,1,10,2,4
17,1,135,f42887_e_182,1,1.647825484,1,10,2,4
17,1,136,f42887_e_053,1,1.746815794,1,9,2,3
17,1,137,f42887_e_172,1,4.664568226,1,9,1,3
17,1,138,f42887_e_187,1,1.572254547,1,10,2,4
17,1,139,f42887_e_075,1,2.332569472,1,10,1,4
17,1,140,f42887_e_221,1,1.442946787,1,10,1,4
17,1,141,f42887_e_148,1,1.462614657,1,10,2,4
17,1,142,f42887_e_232,1,1.582486119,1,9,1,3
17,1,143,f42887_e_111,1,1.432658299,1,10,1,4
17,1,144,f42887_e_108,1,1.553123495,1,9,1,3
17,1,145,f42887_e_090,1,1.162521725,0,9,1,4
17,1,146,f42887_e_085,1,1.132072092,1,9,1,3
17,1,147,f42887_e_161,1,1.712437687,1,9,1,3
17,1,148,f42887_e_256,1,1.782779472,1,9,2,3
17,1,149,f42887_e_152,1,1.352213082,1,9,2,3
17,1,150,f42887_e_169,1,1.342147594,1,10,1,4
17,1,151,f42887_e_132,1,2.273084407,1,9,1,3
17,1,152,f42887_e_037,1,1.232510192,1,10,1,4
17,1,153,f42887_e_189,1,1.422203727,1,9,2,3
17,1,154,f42887_e_063,1,1.121914853,1,10,2,4
17,1,155,f42887_e_175,1,1.99245967,1,10,1,4
17,1,156,f42887_e_234,1,1.262054762,1,10,2,4
17,1,157,f42887_e_022,1,1.151874943,1,10,2,4
17,1,158,f42887_e_080,1,3.813555674,1,9,1,3
17,1,159,f42887_e_088,1,1.961773974,1,10,1,4
17,1,160,f42887_e_197,1,1.982872528,0,9,2,4
17,1,161,f42887_e_231,1,1.582226108,0,10,2,3
17,1,162,f42887_e_027,1,3.342606035,1,9,1,3
17,1,163,f42887_e_274,1,2.032158679,1,9,2,3
17,1,164,f42887_e_025,1,1.416883757,1,9,2,3
17,1,165,f42887_e_272,1,1.606104544,1,10,2,4
17,1,166,f42887_e_109,1,1.856978506,1,9,2,3
17,1,167,f42887_e_036,1,1.682193949,1,9,2,3
17,1,168,f42887_e_023,1,1.45567988,1,10,2,4
17,1,169,f42887_e_083,1,1.601641742,1,10,2,4
17,1,170,f42887_e_207,1,1.355666009,1,10,2,4
17,1,171,f42887_e_279,1,1.121949065,1,10,2,4
17,1,172,f42887_e_154,1,1.600686293,1,9,1,3
17,1,173,f42887_e_278,1,1.581992844,1,9,1,3
17,1,174,f42887_e_056,1,1.025474272,1,10,2,4
17,1,175,f42887_e_013,1,1.595840938,1,10,1,4
17,1,176,f42887_e_031,1,1.722482337,1,10,2,4
17,1,177,f42887_e_164,1,1.175523537,1,10,2,4
17,1,178,f42887_e_134,1,1.061882084,1,9,2,3
17,1,179,f42887_e_201,1,5.296626943,1,9,1,3
17,1,180,f42887_e_213,1,1.585707026,1,9,1,3
17,1,181,f42887_e_259,1,1.154573339,1,9,1,3
17,1,182,f42887_e_095,1,1.552649503,1,9,1,3
17,1,183,f42887_e_018,1,1.231450863,1,9,1,3
17,1,184,f42887_e_168,1,1.351187655,1,9,1,3
17,1,185,f42887_e_014,1,1.085062907,1,9,2,3
17,1,186,f42887_e_140,1,1.515693366,1,9,2,3
17,1,187,f42887_e_012,1,1.581806233,1,10,2,4
17,1,188,f42887_e_163,1,2.335628027,1,10,1,4
17,1,189,f42887_e_069,1,1.99183359,1,10,1,4
17,1,190,f42887_e_021,1,1.521508476,1,9,1,3
17,1,191,f42887_e_251,1,1.360883031,1,10,2,4
17,1,192,f42887_e_209,1,1.811433907,1,10,2,4
17,1,193,f42887_e_051,1,2.521795857,1,9,1,3
17,1,194,f42887_e_250,1,1.801355045,1,9,2,3
17,1,195,f42887_e_289,1,1.36480093,1,10,1,4
17,1,196,f42887_e_024,1,1.831250754,1,9,2,3
17,1,197,f42887_e_043,1,2.071616649,1,10,1,4
17,1,198,f42887_e_155,1,3.571684451,1,9,1,3
17,1,199,f42887_e_010,1,1.701290477,1,10,1,4
17,1,200,f42887_e_212,1,1.84099496,1,10,2,4
17,1,201,f42887_e_157,1,1.848884875,0,9,1,4
17,1,202,f42887_e_065,1,0.78963525,0,9,1,4
17,1,203,f42887_e_097,1,1.230744852,0,9,1,4
17,1,204,f42887_e_135,1,3.00554919,1,9,1,3
17,1,205,f42887_e_297,1,1.474671596,1,9,2,3
17,1,206,f42887_e_174,1,3.145537011,1,9,1,3
17,1,207,f42887_e_253,1,1.46439928,1,9,2,3
17,1,208,f42887_e_084,1,1.95452538,1,9,1,3
17,1,209,f42887_e_002,1,2.704725054,1,9,1,3
17,1,210,f42887_e_068,1,1.475333443,1,9,2,3
17,1,211,f42887_e_128,1,1.450447929,1,10,2,4
17,1,212,f42887_e_181,1,1.755178767,1,9,2,3
17,1,213,f42887_e_125,1,1.223872278,1,10,1,4
17,1,214,f42887_e_263,1,2.04387723,1,9,1,3
17,1,215,f42887_e_276,1,1.744538828,1,9,1,3
17,1,216,f42887_e_059,1,1.634881521,1,9,1,3
17,1,217,f42887_e_247,1,1.539570247,0,10,2,3
17,1,218,f42887_e_185,1,1.454273455,1,10,2,4
17,1,219,f42887_e_052,1,1.373853431,1,10,1,4
17,1,220,f42887_e_124,1,2.090195643,1,9,1,3
17,1,221,f42887_e_227,1,1.05379685,1,10,2,4
17,1,222,f42887_e_030,1,1.844597175,1,10,1,4
17,1,223,f42887_e_230,1,0.932444318,1,10,2,4
17,1,224,f42887_e_286,1,0.933308638,0,9,2,4
17,1,225,f42887_e_217,1,1.233891425,1,10,1,4
17,1,226,f42887_e_117,1,1.193890106,1,9,2,3
17,1,227,f42887_e_292,1,1.373823884,1,10,2,4
17,1,228,f42887_e_138,1,1.313654889,1,10,1,4
17,1,229,f42887_e_295,1,1.134216252,1,10,2,4
17,1,230,f42887_e_040,1,1.46371504,1,10,1,4
17,1,231,f42887_e_244,1,2.194235958,1,9,2,3
17,1,232,f42887_e_239,1,1.493853033,1,9,2,3
17,1,233,f42887_e_158,1,1.943731487,1,9,1,3
17,1,234,f42887_e_035,1,1.36320696,1,10,1,4
17,1,235,f42887_e_077,1,1.213418017,1,9,2,3
17,1,236,f42887_e_055,1,1.219414141,1,10,1,4
17,1,237,f42887_e_275,1,1.274140314,1,10,2,4
17,1,238,f42887_e_205,1,1.4234139,1,10,2,4
17,1,239,f42887_e_210,1,2.314000119,1,9,1,3
17,1,240,f42887_e_200,1,0.963455029,0,9,1,4
17,1,241,f42887_e_192,1,1.029719673,1,9,2,3
17,1,242,f42887_e_173,1,2.490100285,1,9,1,3
17,1,243,f42887_e_199,1,1.659913835,1,10,1,4
17,1,244,f42887_e_046,1,1.548788521,1,10,1,4
17,1,245,f42887_e_078,1,1.499465359,1,9,1,3
17,1,246,f42887_e_089,1,1.979612123,1,9,1,3
17,1,247,f42887_e_220,1,1.43883077,1,10,1,4
17,1,248,f42887_e_072,1,1.288867346,1,10,2,4
17,1,249,f42887_e_115,1,1.629162515,1,10,1,4
17,1,250,f42887_e_223,1,2.239712756,1,9,2,3
17,1,251,f42887_e_153,1,1.830181473,1,10,2,4
17,1,252,f42887_e_045,1,1.639137807,1,9,2,3
17,1,253,f42887_e_281,1,1.431985566,1,10,1,4
17,1,254,f42887_e_104,1,1.339630834,1,10,2,4
17,1,255,f42887_e_137,1,4.410294211,1,9,1,3
17,1,256,f42887_e_034,1,1.603036659,1,9,2,3
17,1,257,f42887_e_146,1,1.78262614,1,9,2,3
17,1,258,f42887_e_094,1,1.483271565,1,10,1,4
17,1,259,f42887_e_265,1,1.383067039,1,10,2,4
17,1,260,f42887_e_177,1,2.132886649,1,10,1,4
17,1,261,f42887_e_240,1,1.982476602,1,10,1,4
17,1,262,f42887_e_288,1,1.362614159,1,9,2,3
17,1,263,f42887_e_038,1,1.351662891,1,9,2,3
17,1,264,f42887_e_032,1,1.192573565,1,10,2,4
17,1,265,f42887_e_211,1,1.012409945,1,10,1,4
17,1,266,f42887_e_019,1,1.492436344,1,10,1,4
17,1,267,f42887_e_191,1,1.618779477,1,9,2,3
17,1,268,f42887_e_252,1,2.042894101,1,9,2,3
17,1,269,f42887_e_235,1,1.18338235,1,10,2,4
17,1,270,f42887_e_225,1,4.633474784,1,9,1,3
17,1,271,f42887_e_196,1,1.30266692,1,10,1,4
17,1,272,f42887_e_004,1,1.013441593,1,10,2,4
17,1,273,f42887_e_116,1,1.812269302,1,9,2,3
17,1,274,f42887_e_061,1,2.78270265,1,9,1,3
17,1,275,f42887_e_007,1,2.242696666,1,10,1,4
17,1,276,f42887_e_262,1,2.142173969,1,9,1,3
17,1,277,f42887_e_214,1,2.064119239,1,10,1,4
17,1,278,f42887_e_099,1,2.152449394,1,10,1,4
17,1,279,f42887_e_082,1,1.661943541,1,9,2,3
17,1,280,f42887_e_003,1,2.58246497,1,10,1,4
17,1,281,f42887_e_000,1,1.692196922,1,10,2,4
17,1,282,f42887_e_145,1,4.903534848,1,9,1,3
17,1,283,f42887_e_121,1,3.332613948,1,9,1,3
17,1,284,f42887_e_179,1,1.661592091,1,10,1,4
17,1,285,f42887_e_011,1,1.492167002,1,10,2,4
17,1,286,f42887_e_017,1,1.44199165,1,10,2,4
17,1,287,f42887_e_074,1,1.70821779,1,10,1,4
17,1,288,f42887_e_093,1,2.197352985,1,9,2,3
17,1,289,f42887_e_107,1,1.810786988,1,10,1,4
17,1,290,f42887_e_033,1,2.692345278,1,9,2,3
17,1,291,f42887_e_241,1,2.261908894,1,9,2,3
17,1,292,f42887_e_254,1,2.602182914,1,9,1,3
17,1,293,f42887_e_073,1,3.912555315,1,9,1,3
17,1,294,f42887_e_129,1,1.722120623,1,9,2,3
17,1,295,f42887_e_198,1,3.169414514,1,9,1,3
17,1,296,f42887_e_087,1,1.367772399,1,10,1,4
17,1,297,f42887_e_176,1,1.351670666,1,10,1,4
17,1,298,f42887_e_049,1,2.242303228,1,9,1,3
17,1,299,f42887_e_110,1,1.771809231,1,9,1,3
17,1,300,f42887_e_123,1,1.722176917,1,9,2,3
17,2,301,f42887_e_258,1,1.056735041,1,10,1,4
17,2,302,f42887_e_077,1,2.230521852,1,9,2,3
17,2,303,f42887_e_298,1,1.344082751,1,10,2,4
17,2,304,f42887_e_295,1,1.354227237,1,9,2,3
17,2,305,f42887_e_082,1,2.434824231,1,9,1,3
17,2,306,f42887_e_087,1,1.483769195,1,10,1,4
17,2,307,f42887_e_215,1,1.563650224,1,9,2,3
17,2,308,f42887_e_054,1,1.622771398,1,9,2,3
17,2,309,f42887_e_002,1,2.283211476,1,10,2,4
17,2,310,f42887_e_291,1,2.243869517,1,10,1,4
17,2,311,f42887_e_015,1,1.533112572,1,10,1,4
17,2,312,f42887_e_050,1,1.684027713,1,9,2,3
17,2,313,f42887_e_178,1,1.553531241,1,9,1,3
17,2,314,f42887_e_133,1,1.69427297,1,9,1,3
17,2,315,f42887_e_173,1,1.503674682,1,10,1,4
17,2,316,f42887_e_081,1,5.214922413,1,9,1,3
17,2,317,f42887_e_243,1,1.683469746,1,9,2,3
17,2,318,f42887_e_132,1,2.603805497,1,9,1,3
17,2,319,f42887_e_227,1,1.323593793,1,10,2,4
17,2,320,f42887_e_240,1,1.843127613,1,9,1,3
17,2,321,f42887_e_201,1,1.483109525,1,10,1,4
17,2,322,f42887_e_042,1,1.502461088,1,10,2,4
17,2,323,f42887_e_000,1,2.243445599,1,9,1,3
17,2,324,f42887_e_006,1,1.342914566,1,10,1,4
17,2,325,f42887_e_134,1,2.472804863,1,9,2,3
17,2,326,f42887_e_296,1,1.132626326,1,9,2,3
17,2,327,f42887_e_069,1,1.952407967,1,9,1,3
17,2,328,f42887_e_260,1,1.162275709,1,10,2,4
17,2,329,f42887_e_242,1,1.962352157,1,9,2,3
17,2,330,f42887_e_255,1,1.773463227,1,9,2,3
17,2,331,f42887_e_181,1,1.243135513,1,10,2,4
17,2,332,f42887_e_159,1,1.492475221,1,9,2,3
17,2,333,f42887_e_044,1,0.791990281,1,10,2,4
17,2,334,f42887_e_267,1,1.352528144,1,10,1,4
17,2,335,f42887_e_034,1,1.732873151,1,9,1,3
17,2,336,f42887_e_122,1,1.077737491,1,10,2,4
17,2,337,f42887_e_252,1,1.022865761,1,10,2,4
17,2,338,f42887_e_041,1,1.292462718,1,10,2,4
17,2,339,f42887_e_290,1,2.042073945,1,9,2,3
17,2,340,f42887_e_175,1,6.634193859,1,9,1,3
17,2,341,f42887_e_115,1,2.174021629,1,9,2,3
17,2,342,f42887_e_086,1,3.190268608,1,9,1,3
17,2,343,f42887_e_234,1,1.560447667,1,10,2,4
17,2,344,f42887_e_117,1,1.507665359,1,9,2,3
17,2,345,f42887_e_263,1,1.388011299,1,10,2,4
17,2,346,f42887_e_090,1,2.328170428,1,10,1,4
17,2,347,f42887_e_297,1,3.448566889,0,9,1,4
17,2,348,f42887_e_067,1,1.437602558,1,10,1,4
17,2,349,f42887_e_118,1,3.749092759,1,9,1,3
17,2,350,f42887_e_039,1,1.22636478,1,10,2,4
17,2,351,f42887_e_152,1,3.218677649,1,9,1,3
17,2,352,f42887_e_153,1,1.93740164,1,9,2,3
17,2,353,f42887_e_276,1,1.077647606,1,9,2,3
17,2,354,f42887_e_094,1,0.967717536,1,9,2,3
17,2,355,f42887_e_174,1,1.388218437,1,9,1,3
17,2,356,f42887_e_093,1,1.026821604,1,10,1,4
17,2,357,f42887_e_280,1,1.507399127,1,10,2,4
17,2,358,f42887_e_163,1,1.417624603,1,10,1,4
17,2,359,f42887_e_110,1,1.307649435,1,9,1,3
17,2,360,f42887_e_089,1,1.137669178,1,10,1,4
17,2,361,f42887_e_098,1,1.347446415,1,10,1,4
17,2,362,f42887_e_232,1,2.178067979,1,9,1,3
17,2,363,f42887_e_018,1,1.387179324,1,10,1,4
17,2,364,f42887_e_262,1,1.816985274,1,9,2,3
17,2,365,f42887_e_070,1,2.687153137,1,10,1,4
17,2,366,f42887_e_113,1,1.467815195,1,10,1,4
17,2,367,f42887_e_130,1,1.617452983,1,10,1,4
17,2,368,f42887_e_207,1,1.356376375,1,9,2,3
17,2,369,f42887_e_107,1,2.61762,1,9,2,3
17,2,370,f42887_e_274,1,1.226608929,1,10,2,4
17,2,371,f42887_e_124,1,1.717175431,1,9,2,3
17,2,372,f42887_e_025,1,3.318214108,1,9,1,3
17,2,373,f42887_e_271,1,6.958418086,1,9,1,3
17,2,374,f42887_e_177,1,2.847236788,1,10,2,4
17,2,375,f42887_e_119,1,4.287878929,1,9,1,3
17,2,376,f42887_e_281,1,1.897128181,1,9,2,3
17,2,377,f42887_e_014,1,2.427270528,1,10,2,4
17,2,378,f42887_e_168,1,1.667356194,1,9,2,3
17,2,379,f42887_e_288,1,1.31677347,1,10,1,4
17,2,380,f42887_e_200,1,1.356798738,1,9,2,3
17,2,381,f42887_e_278,1,0.987701089,1,10,2,4
17,2,382,f42887_e_143,1,1.196977275,1,10,2,4
17,2,383,f42887_e_083,1,1.887389573,1,9,1,3
17,2,384,f42887_e_105,1,2.957635875,1,9,1,3
17,2,385,f42887_e_057,1,2.597851672,1,9,1,3
17,2,386,f42887_e_055,1,1.23672107,1,10,2,4
17,2,387,f42887_e_141,1,1.316882327,1,9,2,3
17,2,388,f42887_e_172,1,1.686614142,0,9,1,4
17,2,389,f42887_e_241,1,1.416387683,1,10,2,4
17,2,390,f42887_e_048,1,1.356012794,1,10,1,4
17,2,391,f42887_e_150,1,0.86604096,1,10,2,4
17,2,392,f42887_e_223,1,1.206546999,1,10,1,4
17,2,393,f42887_e_225,1,1.146200724,0,9,2,4
17,2,394,f42887_e_138,1,1.565685217,1,9,1,3
17,2,395,f42887_e_208,1,1.716471285,0,9,2,4
17,2,396,f42887_e_183,1,1.266286478,1,10,1,4
17,2,397,f42887_e_249,1,0.815492386,0,9,1,4
17,2,398,f42887_e_229,1,0.706230383,0,9,2,4
17,2,399,f42887_e_139,1,0.895788313,1,10,2,4
17,2,400,f42887_e_221,1,1.146308025,1,10,1,4
17,2,401,f42887_e_246,1,10.0017669,-1,10,1,0
17,2,402,f42887_e_028,1,10.00028334,-1,10,2,0
17,2,403,f42887_e_112,1,10.00001897,-1,9,1,0
17,2,404,f42887_e_101,1,10.00919246,-1,9,1,0
17,2,405,f42887_e_011,1,10.00911128,-1,10,1,0
17,2,406,f42887_e_186,1,10.00058627,-1,10,2,0
17,2,407,f42887_e_012,1,10.00745107,-1,10,2,0
17,2,408,f42887_e_285,1,10.00981356,-1,9,1,0
17,2,409,f42887_e_128,1,6.088694668,1,9,1,3
17,2,410,f42887_e_264,1,1.341687909,1,10,2,4
17,2,411,f42887_e_251,1,1.380562719,0,9,1,4
17,2,412,f42887_e_148,1,1.433839858,1,9,2,3
17,2,413,f42887_e_063,1,1.200751794,1,9,2,3
17,2,414,f42887_e_239,1,1.089121697,1,9,2,3
17,2,415,f42887_e_095,1,0.989148257,1,10,2,4
17,2,416,f42887_e_217,1,1.189423882,1,10,1,4
17,2,417,f42887_e_216,1,1.230637861,1,10,1,4
17,2,418,f42887_e_004,1,1.088833693,1,10,1,4
17,2,419,f42887_e_184,1,2.514409793,1,9,1,3
17,2,420,f42887_e_038,1,3.420706173,1,9,1,3
17,2,421,f42887_e_136,1,0.92017682,1,10,2,4
17,2,422,f42887_e_032,1,1.085751501,1,10,1,4
17,2,423,f42887_e_017,1,1.465795753,1,9,2,3
17,2,424,f42887_e_052,1,1.106046384,1,10,1,4
17,2,425,f42887_e_259,1,0.955158924,1,10,2,4
17,2,426,f42887_e_108,1,1.333502216,1,9,2,3
17,2,427,f42887_e_019,1,1.246029539,1,9,2,3
17,2,428,f42887_e_261,1,1.775891348,1,9,2,3
17,2,429,f42887_e_209,1,1.345179402,0,9,1,4
17,2,430,f42887_e_151,1,1.425074116,0,9,1,4
17,2,431,f42887_e_046,1,1.196339065,0,9,1,4
17,2,432,f42887_e_180,1,1.403586477,1,9,2,3
17,2,433,f42887_e_165,1,1.415740143,1,10,2,4
17,2,434,f42887_e_213,1,1.555640878,0,9,1,4
17,2,435,f42887_e_176,1,1.155335334,1,9,2,3
17,2,436,f42887_e_021,1,1.525349554,1,9,2,3
17,2,437,f42887_e_051,1,1.014858903,1,10,2,4
17,2,438,f42887_e_072,1,0.995089953,1,10,1,4
17,2,439,f42887_e_071,1,1.26541376,1,10,1,4
17,2,440,f42887_e_253,1,0.914834457,1,10,2,4
17,2,441,f42887_e_053,1,1.244450499,1,10,2,4
17,2,442,f42887_e_228,1,0.774037056,1,10,2,4
17,2,443,f42887_e_024,1,1.544217795,1,9,1,3
17,2,444,f42887_e_292,1,2.094908505,1,9,1,3
17,2,445,f42887_e_149,1,1.294751503,1,10,1,4
17,2,446,f42887_e_076,1,1.024940253,1,10,2,4
17,2,447,f42887_e_256,1,1.765391678,1,9,1,3
17,2,448,f42887_e_085,1,0.925370827,1,10,1,4
17,2,449,f42887_e_202,1,0.984486403,1,10,1,4
17,2,450,f42887_e_204,1,0.703834919,1,10,1,4
17,2,451,f42887_e_167,1,0.573379812,0,9,2,4
17,2,452,f42887_e_270,1,0.574272124,1,10,1,4
17,2,453,f42887_e_162,1,0.754218342,0,9,2,4
17,2,454,f42887_e_196,1,0.914886708,1,10,2,4
17,2,455,f42887_e_106,1,0.973893739,1,10,1,4
17,2,456,f42887_e_008,1,1.254576636,1,10,1,4
17,2,457,f42887_e_158,1,1.384623686,0,10,2,3
17,2,458,f42887_e_058,1,1.884057322,0,10,1,3
17,2,459,f42887_e_179,1,1.173965957,0,10,2,3
17,2,460,f42887_e_016,1,0.883717068,1,9,2,3
