Subject,Trial,Type,Stimulus,Eye,Location,Response,RT,Acc,stimTime,Block
1,1,static conscious control,f42887_e_053,NA,10,2,5.09080131,1,0,1
1,2,static conscious control,f42887_e_072,NA,10,2,2.032821163,1,0,1
1,3,static conscious control,f42887_e_120,NA,9,1,0.824728102,1,0,1
1,4,static conscious control,f42887_e_044,NA,9,1,0.928443712,1,0,1
1,5,static conscious control,f42887_e_285,NA,10,2,0.5968389,1,0,1
1,6,static conscious control,f42887_e_059,NA,10,2,0.537037757,1,0,1
1,7,static conscious control,f42887_e_253,NA,9,1,0.414736478,1,0,1
1,8,static conscious control,f42887_e_074,NA,10,2,2.22183995,1,0,1
1,9,static conscious control,f42887_e_193,NA,9,1,0.536094758,1,0,1
1,10,static conscious control,f42887_e_289,NA,9,1,0.513785921,1,0,1
1,11,static conscious control,f42887_e_041,NA,9,1,0.64147399,1,0,1
1,12,static conscious control,f42887_e_215,NA,9,1,0.455700962,1,0,1
1,13,static conscious control,f42887_e_040,NA,9,1,0.420079415,1,0,1
1,14,static conscious control,f42887_e_143,NA,10,2,0.63179052,1,0,1
1,15,static conscious control,f42887_e_280,NA,10,2,0.655212481,1,0,1
1,16,static conscious control,f42887_e_032,NA,9,1,0.539573778,1,0,1
1,17,static conscious control,f42887_e_076,NA,10,2,0.422232576,1,0,1
1,18,static conscious control,f42887_e_116,NA,10,1,0.485183373,0,0,1
1,19,static conscious control,f42887_e_077,NA,10,2,0.839086137,1,0,1
1,20,static conscious control,f42887_e_166,NA,10,2,0.555822476,1,0,1
1,21,static conscious control,f42887_e_169,NA,9,1,0.540452086,1,0,1
1,22,static conscious control,f42887_e_127,NA,9,1,0.820131914,1,0,1
1,23,static conscious control,f42887_e_013,NA,9,1,0.538541828,1,0,1
1,24,static conscious control,f42887_e_094,NA,9,1,0.456938182,1,0,1
1,25,static conscious control,f42887_e_099,NA,9,1,0.532304722,1,0,1
1,26,static conscious control,f42887_e_080,NA,9,1,0.407083007,1,0,1
1,27,static conscious control,f42887_e_037,NA,10,2,0.680472234,1,0,1
1,28,static conscious control,f42887_e_257,NA,9,1,0.649799255,1,0,1
1,29,static conscious control,f42887_e_138,NA,9,1,0.729031096,1,0,1
1,30,static conscious control,f42887_e_274,NA,9,1,0.528709071,1,0,1
1,31,static conscious control,f42887_e_083,NA,9,1,0.603002607,1,0,1
1,32,static conscious control,f42887_e_019,NA,10,2,0.772737494,1,0,1
1,33,static conscious control,f42887_e_194,NA,10,2,0.563526332,1,0,1
1,34,static conscious control,f42887_e_290,NA,10,2,1.437949437,1,0,1
1,35,static conscious control,f42887_e_240,NA,10,2,0.419786749,1,0,1
1,36,static conscious control,f42887_e_043,NA,10,2,0.43352524,1,0,1
1,37,static conscious control,f42887_e_085,NA,9,1,0.779977004,1,0,1
1,38,static conscious control,f42887_e_197,NA,10,2,0.762326247,1,0,1
1,39,static conscious control,f42887_e_070,NA,10,2,0.701077949,1,0,1
1,40,static conscious control,f42887_e_063,NA,10,2,0.461795935,1,0,1
1,41,static conscious control,f42887_e_108,NA,10,2,0.405141025,1,0,1
1,42,static conscious control,f42887_e_150,NA,10,2,0.514211701,1,0,1
1,43,static conscious control,f42887_e_135,NA,9,1,0.794355876,1,0,1
1,44,static conscious control,f42887_e_004,NA,10,2,0.7376285,1,0,1
1,45,static conscious control,f42887_e_251,NA,9,1,0.527060377,1,0,1
1,46,static conscious control,f42887_e_145,NA,9,1,0.525786457,1,0,1
1,47,static conscious control,f42887_e_165,NA,10,2,0.534393191,1,0,1
1,48,static conscious control,f42887_e_039,NA,10,2,0.496950026,1,0,1
1,49,static conscious control,f42887_e_069,NA,10,2,0.526155011,1,0,1
1,50,static conscious control,f42887_e_026,NA,10,2,0.508772972,1,0,1
1,51,static conscious control,f42887_e_151,NA,10,2,0.43185291,1,0,1
1,52,static conscious control,f42887_e_176,NA,9,1,0.621755602,1,0,1
1,53,static conscious control,f42887_e_124,NA,9,1,0.60751762,1,0,1
1,54,static conscious control,f42887_e_228,NA,10,2,0.537858216,1,0,1
1,55,static conscious control,f42887_e_139,NA,10,2,0.476485823,1,0,1
1,56,static conscious control,f42887_e_023,NA,10,2,0.473314397,1,0,1
1,57,static conscious control,f42887_e_009,NA,9,2,0.367782767,0,0,1
1,58,static conscious control,f42887_e_132,NA,9,1,0.803392123,1,0,1
1,59,static conscious control,f42887_e_188,NA,10,2,0.656535541,1,0,1
1,60,static conscious control,f42887_e_296,NA,9,1,0.839256262,1,0,1
1,61,static conscious control,f42887_e_284,NA,9,1,0.533640845,1,0,1
1,62,static conscious control,f42887_e_266,NA,10,2,0.634353599,1,0,1
1,63,static conscious control,f42887_e_181,NA,9,1,1.16771142,1,0,1
1,64,static conscious control,f42887_e_249,NA,9,1,0.673561467,1,0,1
1,65,static conscious control,f42887_e_128,NA,10,2,0.426491934,1,0,1
1,66,static conscious control,f42887_e_020,NA,10,2,0.679278867,1,0,1
1,67,static conscious control,f42887_e_022,NA,10,2,0.574070693,1,0,1
1,68,static conscious control,f42887_e_270,NA,9,1,0.615085873,1,0,1
1,69,static conscious control,f42887_e_214,NA,10,2,0.498037647,1,0,1
1,70,static conscious control,f42887_e_200,NA,9,1,0.546420786,1,0,1
1,71,static conscious control,f42887_e_088,NA,9,1,0.798167683,1,0,1
1,72,static conscious control,f42887_e_196,NA,9,1,0.546347386,1,0,1
1,73,static conscious control,f42887_e_203,NA,10,2,0.397087899,1,0,1
1,74,static conscious control,f42887_e_170,NA,9,1,0.454425798,1,0,1
1,75,static conscious control,f42887_e_190,NA,10,2,0.388176369,1,0,1
1,76,static conscious control,f42887_e_121,NA,9,1,0.43095563,1,0,1
1,77,static conscious control,f42887_e_071,NA,9,2,0.394391394,0,0,1
1,78,static conscious control,f42887_e_012,NA,10,2,0.45453652,1,0,1
1,79,static conscious control,f42887_e_294,NA,9,1,0.676518915,1,0,1
1,80,static conscious control,f42887_e_129,NA,10,2,0.402887095,1,0,1
1,81,static conscious control,f42887_e_241,NA,10,2,0.525198638,1,0,1
1,82,static conscious control,f42887_e_202,NA,9,1,0.686133028,1,0,1
1,83,static conscious control,f42887_e_260,NA,9,1,0.583624159,1,0,1
1,84,static conscious control,f42887_e_154,NA,9,1,0.539812949,1,0,1
1,85,static conscious control,f42887_e_221,NA,10,2,0.551849563,1,0,1
1,86,static conscious control,f42887_e_087,NA,9,1,0.547997635,1,0,1
1,87,static conscious control,f42887_e_028,NA,10,2,0.44471527,1,0,1
1,88,static conscious control,f42887_e_051,NA,10,2,1.348994316,1,0,1
1,89,static conscious control,f42887_e_247,NA,9,1,0.727256441,1,0,1
1,90,static conscious control,f42887_e_213,NA,10,2,0.407645012,1,0,1
1,91,static conscious control,f42887_e_242,NA,9,1,0.751698845,1,0,1
1,92,static conscious control,f42887_e_297,NA,10,2,0.461535304,1,0,1
1,93,static conscious control,f42887_e_279,NA,10,2,0.64454247,1,0,1
1,94,static conscious control,f42887_e_256,NA,9,1,0.720499317,1,0,1
1,95,static conscious control,f42887_e_133,NA,10,2,0.434069207,1,0,1
1,96,static conscious control,f42887_e_183,NA,9,1,0.767700596,1,0,1
1,97,static conscious control,f42887_e_252,NA,9,1,0.720785451,1,0,1
1,98,static conscious control,f42887_e_177,NA,10,2,0.453714817,1,0,1
1,99,static conscious control,f42887_e_225,NA,9,1,0.699591916,1,0,1
1,100,static conscious control,f42887_e_156,NA,9,1,0.537993508,1,0,1
1,101,static conscious control,f42887_e_091,NA,9,1,0.853345268,1,0,1
1,102,static conscious control,f42887_e_031,NA,9,1,0.722712504,1,0,1
1,103,static conscious control,f42887_e_095,NA,10,2,0.760938185,1,0,1
1,104,static conscious control,f42887_e_102,NA,10,2,0.704018912,1,0,1
1,105,static conscious control,f42887_e_149,NA,9,1,0.56170347,1,0,1
1,106,static conscious control,f42887_e_125,NA,9,1,0.536134879,1,0,1
1,107,static conscious control,f42887_e_096,NA,10,2,0.549430484,1,0,1
1,108,static conscious control,f42887_e_178,NA,9,1,1.31653673,1,0,1
1,109,static conscious control,f42887_e_220,NA,10,2,0.710761419,1,0,1
1,110,static conscious control,f42887_e_204,NA,9,1,0.600549627,1,0,1
1,111,static conscious control,f42887_e_010,NA,9,1,0.599146946,1,0,1
1,112,static conscious control,f42887_e_273,NA,10,2,0.551035635,1,0,1
1,113,static conscious control,f42887_e_062,NA,9,1,0.318042045,1,0,1
1,114,static conscious control,f42887_e_276,NA,9,1,0.546568829,1,0,1
1,115,static conscious control,f42887_e_142,NA,9,1,0.423057078,1,0,1
1,116,static conscious control,f42887_e_269,NA,10,2,0.650150392,1,0,1
1,117,static conscious control,f42887_e_052,NA,10,2,0.641587822,1,0,1
1,118,static conscious control,f42887_e_186,NA,9,1,0.513118171,1,0,1
1,119,static conscious control,f42887_e_078,NA,10,2,0.449845783,1,0,1
1,120,static conscious control,f42887_e_168,NA,10,2,0.836801727,1,0,1
1,121,static conscious control,f42887_e_025,NA,10,2,0.4854213,1,0,1
1,122,static conscious control,f42887_e_162,NA,10,2,0.47824897,1,0,1
1,123,static conscious control,f42887_e_066,NA,9,1,0.452049328,1,0,1
1,124,static conscious control,f42887_e_161,NA,9,1,0.47754763,1,0,1
1,125,static conscious control,f42887_e_271,NA,9,1,0.419438723,1,0,1
1,126,static conscious control,f42887_e_113,NA,9,1,0.492314338,1,0,1
1,127,static conscious control,f42887_e_056,NA,10,2,0.467037169,1,0,1
1,128,static conscious control,f42887_e_267,NA,10,2,0.480871453,1,0,1
1,129,static conscious control,f42887_e_292,NA,9,1,0.571091786,1,0,1
1,130,static conscious control,f42887_e_148,NA,10,2,0.561106009,1,0,1
1,131,static conscious control,f42887_e_104,NA,9,1,0.455940133,1,0,1
1,132,static conscious control,f42887_e_119,NA,10,2,0.499304414,1,0,1
1,133,static conscious control,f42887_e_075,NA,10,2,0.602574649,1,0,1
1,134,static conscious control,f42887_e_235,NA,10,2,0.467836479,1,0,1
1,135,static conscious control,f42887_e_140,NA,9,1,0.901498877,1,0,1
1,136,static conscious control,f42887_e_155,NA,9,1,0.681502628,1,0,1
1,137,static conscious control,f42887_e_017,NA,10,2,0.467598863,1,0,1
1,138,static conscious control,f42887_e_112,NA,10,2,0.541194791,1,0,1
1,139,static conscious control,f42887_e_005,NA,10,2,0.612101367,1,0,1
1,140,static conscious control,f42887_e_275,NA,10,2,0.538650062,1,0,1
1,141,static conscious control,f42887_e_287,NA,9,1,0.43648051,1,0,1
1,142,static conscious control,f42887_e_046,NA,10,2,0.713614054,1,0,1
1,143,static conscious control,f42887_e_174,NA,9,1,0.568627299,1,0,1
1,144,static conscious control,f42887_e_191,NA,9,2,0.414937705,0,0,1
1,145,static conscious control,f42887_e_236,NA,10,2,0.645680787,1,0,1
1,146,static conscious control,f42887_e_286,NA,9,1,0.551326124,1,0,1
1,147,static conscious control,f42887_e_090,NA,10,2,0.769416158,1,0,1
1,148,static conscious control,f42887_e_097,NA,10,2,0.490016555,1,0,1
1,149,static conscious control,f42887_e_207,NA,9,1,0.785611051,1,0,1
1,150,static conscious control,f42887_e_264,NA,10,2,0.419505902,1,0,1
1,151,static conscious control,f42887_e_084,NA,10,2,0.548779217,1,0,1
1,152,static conscious control,f42887_e_234,NA,9,1,0.640841384,1,0,1
1,153,static conscious control,f42887_e_199,NA,9,1,0.6428154,1,0,1
1,154,static conscious control,f42887_e_277,NA,9,1,0.644152456,1,0,1
1,155,static conscious control,f42887_e_227,NA,9,1,0.728524452,1,0,1
1,156,static conscious control,f42887_e_002,NA,9,1,1.148734804,1,0,1
1,157,static conscious control,f42887_e_131,NA,10,2,0.500730109,1,0,1
1,158,static conscious control,f42887_e_061,NA,9,1,0.493018478,1,0,1
1,159,static conscious control,f42887_e_054,NA,9,1,0.635216978,1,0,1
1,160,static conscious control,f42887_e_016,NA,9,1,0.460575198,1,0,1
1,161,static conscious control,f42887_e_163,NA,9,1,0.59127763,1,0,1
1,162,static conscious control,f42887_e_034,NA,10,2,0.6642677,1,0,1
1,163,static conscious control,f42887_e_192,NA,9,1,0.405512378,1,0,1
1,164,static conscious control,f42887_e_136,NA,9,1,0.581985418,1,0,1
1,165,static conscious control,f42887_e_211,NA,9,1,0.559067924,1,0,1
1,166,static conscious control,f42887_e_137,NA,9,1,2.970222124,1,0,1
1,167,static conscious control,f42887_e_065,NA,10,2,0.562202028,1,0,1
1,168,static conscious control,f42887_e_258,NA,10,2,0.662265693,1,0,1
1,169,static conscious control,f42887_e_153,NA,10,2,0.759729889,1,0,1
1,170,static conscious control,f42887_e_224,NA,9,1,0.891330845,1,0,1
1,171,static conscious control,f42887_e_107,NA,10,2,0.414671165,1,0,1
1,172,static conscious control,f42887_e_209,NA,10,2,0.586343057,1,0,1
1,173,static conscious control,f42887_e_082,NA,10,2,0.447540535,1,0,1
1,174,static conscious control,f42887_e_261,NA,9,1,0.442539405,1,0,1
1,175,static conscious control,f42887_e_089,NA,9,1,0.382231929,1,0,1
1,176,static conscious control,f42887_e_167,NA,10,2,0.598606401,1,0,1
1,177,static conscious control,f42887_e_187,NA,10,2,0.552112371,1,0,1
1,178,static conscious control,f42887_e_248,NA,10,2,0.724456057,1,0,1
1,179,static conscious control,f42887_e_111,NA,10,2,0.565724279,1,0,1
1,180,static conscious control,f42887_e_299,NA,10,2,0.477389945,1,0,1
1,181,static conscious control,f42887_e_035,NA,9,1,0.69107009,1,0,1
1,182,static conscious control,f42887_e_232,NA,10,2,0.740834449,1,0,1
1,183,static conscious control,f42887_e_036,NA,10,2,0.510527722,1,0,1
1,184,static conscious control,f42887_e_185,NA,10,2,0.550120938,1,0,1
1,185,static conscious control,f42887_e_060,NA,9,1,0.618562094,1,0,1
1,186,static conscious control,f42887_e_118,NA,10,2,0.57169018,1,0,1
1,187,static conscious control,f42887_e_206,NA,9,1,2.632072922,1,0,1
1,188,static conscious control,f42887_e_103,NA,10,2,0.520715348,1,0,1
1,189,static conscious control,f42887_e_024,NA,10,2,1.156051757,1,0,1
1,190,static conscious control,f42887_e_086,NA,10,2,0.691362755,1,0,1
1,191,static conscious control,f42887_e_101,NA,9,1,0.797064511,1,0,1
1,192,static conscious control,f42887_e_291,NA,9,1,0.808327629,1,0,1
1,193,static conscious control,f42887_e_042,NA,9,1,0.560452254,1,0,1
1,194,static conscious control,f42887_e_219,NA,10,2,0.544306502,1,0,1
1,195,static conscious control,f42887_e_106,NA,10,2,0.986052195,1,0,1
1,196,static conscious control,f42887_e_122,NA,10,2,1.265674797,1,0,1
1,197,static conscious control,f42887_e_160,NA,9,1,0.579213336,1,0,1
1,198,static conscious control,f42887_e_079,NA,9,1,0.72751334,1,0,1
1,199,static conscious control,f42887_e_281,NA,10,2,0.666817095,1,0,1
1,200,static conscious control,f42887_e_262,NA,9,1,0.419811941,1,0,1
1,201,static conscious control,f42887_e_223,NA,10,2,0.798810552,1,0,1
1,202,static conscious control,f42887_e_217,NA,9,1,0.437895631,1,0,1
1,203,static conscious control,f42887_e_182,NA,9,1,0.539868621,1,0,1
1,204,static conscious control,f42887_e_282,NA,9,1,0.512030549,1,0,1
1,205,static conscious control,f42887_e_212,NA,10,2,0.60799534,1,0,1
1,206,static conscious control,f42887_e_117,NA,9,1,0.61971534,1,0,1
1,207,static conscious control,f42887_e_208,NA,10,2,0.516039851,1,0,1
1,208,static conscious control,f42887_e_068,NA,10,2,0.611304857,1,0,1
1,209,static conscious control,f42887_e_038,NA,10,2,0.462181594,1,0,1
1,210,static conscious control,f42887_e_030,NA,9,1,0.687503985,1,0,1
1,211,static conscious control,f42887_e_003,NA,9,1,0.602976481,1,0,1
1,212,static conscious control,f42887_e_057,NA,10,2,0.634659017,1,0,1
1,213,static conscious control,f42887_e_033,NA,9,1,0.452151652,1,0,1
1,214,static conscious control,f42887_e_263,NA,10,2,3.478074179,1,0,1
1,215,static conscious control,f42887_e_184,NA,9,1,0.503621621,1,0,1
1,216,static conscious control,f42887_e_092,NA,9,1,0.574747774,1,0,1
1,217,static conscious control,f42887_e_164,NA,9,1,0.440781545,1,0,1
1,218,static conscious control,f42887_e_049,NA,9,1,0.466012062,1,0,1
1,219,static conscious control,f42887_e_064,NA,9,1,0.521030096,1,0,1
1,220,static conscious control,f42887_e_283,NA,10,2,0.510563178,1,0,1
1,221,static conscious control,f42887_e_045,NA,10,2,0.456697456,1,0,1
1,222,static conscious control,f42887_e_008,NA,9,1,0.564093935,1,0,1
1,223,static conscious control,f42887_e_001,NA,9,1,0.59701649,1,0,1
1,224,static conscious control,f42887_e_018,NA,10,2,0.544989803,1,0,1
1,225,static conscious control,f42887_e_048,NA,9,1,0.620515272,1,0,1
1,226,static conscious control,f42887_e_147,NA,10,2,0.47954435,1,0,1
1,227,static conscious control,f42887_e_198,NA,10,2,0.599796347,1,0,1
1,228,static conscious control,f42887_e_237,NA,10,2,0.551568405,1,0,1
1,229,static conscious control,f42887_e_216,NA,9,1,0.614767082,1,0,1
1,230,static conscious control,f42887_e_179,NA,9,1,0.678499773,1,0,1
1,231,static conscious control,f42887_e_238,NA,9,1,0.638431947,1,0,1
1,232,static conscious control,f42887_e_114,NA,10,2,0.639529209,1,0,1
1,233,static conscious control,f42887_e_021,NA,9,1,0.477697539,1,0,1
1,234,static conscious control,f42887_e_298,NA,10,2,0.37188133,1,0,1
1,235,static conscious control,f42887_e_029,NA,10,2,0.643209146,1,0,1
1,236,static conscious control,f42887_e_100,NA,10,2,0.856912306,1,0,1
1,237,static conscious control,f42887_e_201,NA,10,2,0.43867628,1,0,1
1,238,static conscious control,f42887_e_246,NA,9,1,0.57404208,1,0,1
1,239,static conscious control,f42887_e_055,NA,10,2,0.421233283,1,0,1
1,240,static conscious control,f42887_e_014,NA,9,1,0.750534092,1,0,1
1,241,static conscious control,f42887_e_173,NA,9,1,0.603046149,1,0,1
1,242,static conscious control,f42887_e_222,NA,9,1,0.628046825,1,0,1
1,243,static conscious control,f42887_e_110,NA,10,2,0.644881166,1,0,1
1,244,static conscious control,f42887_e_134,NA,9,1,0.591563454,1,0,1
1,245,static conscious control,f42887_e_231,NA,10,2,0.597802426,1,0,1
1,246,static conscious control,f42887_e_171,NA,9,1,0.602921121,1,0,1
1,247,static conscious control,f42887_e_189,NA,10,2,0.396596805,1,0,1
1,248,static conscious control,f42887_e_265,NA,10,2,0.59640721,1,0,1
1,249,static conscious control,f42887_e_218,NA,9,1,0.610066081,1,0,1
1,250,static conscious control,f42887_e_245,NA,10,2,0.691777028,1,0,1
1,251,static conscious control,f42887_e_254,NA,9,1,0.418774704,1,0,1
1,252,static conscious control,f42887_e_098,NA,10,2,0.596036791,1,0,1
1,253,static conscious control,f42887_e_250,NA,10,2,0.651526636,1,0,1
1,254,static conscious control,f42887_e_158,NA,10,2,0.479302691,1,0,1
1,255,static conscious control,f42887_e_105,NA,9,1,0.408759692,1,0,1
1,256,static conscious control,f42887_e_073,NA,9,1,0.31508833,1,0,1
1,257,static conscious control,f42887_e_205,NA,10,2,0.503001456,1,0,1
1,258,static conscious control,f42887_e_180,NA,10,2,0.556807151,1,0,1
1,259,static conscious control,f42887_e_141,NA,9,1,0.451656827,1,0,1
1,260,static conscious control,f42887_e_000,NA,10,1,0.350777368,0,0,1
1,261,static conscious control,f42887_e_230,NA,10,2,0.612309748,1,0,1
1,262,static conscious control,f42887_e_130,NA,10,2,0.595305904,1,0,1
1,263,static conscious control,f42887_e_159,NA,10,2,0.451539574,1,0,1
1,264,static conscious control,f42887_e_093,NA,9,1,0.891455251,1,0,1
1,265,static conscious control,f42887_e_226,NA,10,2,0.675623501,1,0,1
1,266,static conscious control,f42887_e_157,NA,10,2,0.454111051,1,0,1
1,267,static conscious control,f42887_e_126,NA,9,1,0.572209576,1,0,1
1,268,static conscious control,f42887_e_278,NA,10,2,0.414919044,1,0,1
1,269,static conscious control,f42887_e_293,NA,9,1,0.403283018,1,0,1
1,270,static conscious control,f42887_e_259,NA,10,2,0.327414499,1,0,1
1,271,static conscious control,f42887_e_109,NA,10,2,0.830140707,1,0,1
1,272,static conscious control,f42887_e_123,NA,10,2,0.621527317,1,0,1
1,273,static conscious control,f42887_e_272,NA,10,2,0.462517491,1,0,1
1,274,static conscious control,f42887_e_146,NA,10,2,0.41458999,1,0,1
1,275,static conscious control,f42887_e_175,NA,9,2,0.388726556,0,0,1
1,276,static conscious control,f42887_e_006,NA,9,1,0.59598765,1,0,1
1,277,static conscious control,f42887_e_229,NA,9,1,0.492300965,1,0,1
1,278,static conscious control,f42887_e_268,NA,9,1,0.569878514,1,0,1
1,279,static conscious control,f42887_e_007,NA,9,1,0.420665057,1,0,1
1,280,static conscious control,f42887_e_050,NA,10,2,0.605488554,1,0,1
1,281,static conscious control,f42887_e_152,NA,10,2,0.591165043,1,0,1
1,282,static conscious control,f42887_e_195,NA,10,2,0.46418018,1,0,1
1,283,static conscious control,f42887_e_295,NA,10,2,0.431735346,1,0,1
1,284,static conscious control,f42887_e_058,NA,10,2,0.321661333,1,0,1
1,285,static conscious control,f42887_e_210,NA,9,1,0.555868195,1,0,1
1,286,static conscious control,f42887_e_081,NA,9,1,0.382662063,1,0,1
1,287,static conscious control,f42887_e_027,NA,10,1,0.261179377,0,0,1
1,288,static conscious control,f42887_e_288,NA,9,1,0.674329365,1,0,1
1,289,static conscious control,f42887_e_172,NA,10,2,0.556678702,1,0,1
1,290,static conscious control,f42887_e_239,NA,10,2,0.383747508,1,0,1
1,291,static conscious control,f42887_e_047,NA,9,1,0.513207432,1,0,1
1,292,static conscious control,f42887_e_015,NA,10,2,0.438280358,1,0,1
1,293,static conscious control,f42887_e_243,NA,10,2,0.726848389,1,0,1
1,294,static conscious control,f42887_e_255,NA,9,1,0.406128811,1,0,1
1,295,static conscious control,f42887_e_011,NA,9,1,0.513278655,1,0,1
1,296,static conscious control,f42887_e_144,NA,9,1,0.45544904,1,0,1
1,297,static conscious control,f42887_e_115,NA,9,1,0.492576836,1,0,1
1,298,static conscious control,f42887_e_233,NA,9,1,0.532472048,1,0,1
1,299,static conscious control,f42887_e_067,NA,9,1,0.442485288,1,0,1
1,300,static conscious control,f42887_e_244,NA,10,2,0.572779046,1,0,1
1,301,static conscious control,f42887_e_055,NA,10,2,0.713735039,1,0,2
1,302,static conscious control,f42887_e_027,NA,10,2,0.568942357,1,0,2
1,303,static conscious control,f42887_e_128,NA,10,2,0.450152444,1,0,2
1,304,static conscious control,f42887_e_154,NA,9,1,0.51593535,1,0,2
1,305,static conscious control,f42887_e_023,NA,10,2,0.455830967,1,0,2
1,306,static conscious control,f42887_e_135,NA,9,1,0.526171184,1,0,2
1,307,static conscious control,f42887_e_041,NA,9,1,0.597493277,1,0,2
1,308,static conscious control,f42887_e_013,NA,9,1,0.595143865,1,0,2
1,309,static conscious control,f42887_e_057,NA,10,2,0.587603914,1,0,2
1,310,static conscious control,f42887_e_072,NA,10,2,0.955993472,1,0,2
1,311,static conscious control,f42887_e_033,NA,9,1,0.369220903,1,0,2
1,312,static conscious control,f42887_e_115,NA,9,1,0.614817467,1,0,2
1,313,static conscious control,f42887_e_075,NA,10,2,0.584182121,1,0,2
1,314,static conscious control,f42887_e_042,NA,9,1,0.643273215,1,0,2
1,315,static conscious control,f42887_e_275,NA,10,2,0.466350447,1,0,2
1,316,static conscious control,f42887_e_232,NA,10,2,0.591539505,1,0,2
1,317,static conscious control,f42887_e_078,NA,10,2,0.525313092,1,0,2
1,318,static conscious control,f42887_e_034,NA,10,2,0.45439252,1,0,2
1,319,static conscious control,f42887_e_123,NA,10,2,0.420983848,1,0,2
1,320,static conscious control,f42887_e_196,NA,9,1,0.588708331,1,0,2
1,321,static conscious control,f42887_e_299,NA,10,1,0.353637156,0,0,2
1,322,static conscious control,f42887_e_193,NA,9,1,0.852143193,1,0,2
1,323,static conscious control,f42887_e_086,NA,10,2,0.468425854,1,0,2
1,324,static conscious control,f42887_e_244,NA,10,2,0.499012059,1,0,2
1,325,static conscious control,f42887_e_278,NA,10,2,0.720773633,1,0,2
1,326,static conscious control,f42887_e_217,NA,9,1,0.652632918,1,0,2
1,327,static conscious control,f42887_e_032,NA,9,1,0.673401916,1,0,2
1,328,static conscious control,f42887_e_284,NA,9,1,0.444278293,1,0,2
1,329,static conscious control,f42887_e_020,NA,10,2,0.740561999,1,0,2
1,330,static conscious control,f42887_e_096,NA,10,2,1.17210607,1,0,2
1,331,static conscious control,f42887_e_007,NA,9,1,0.661705553,1,0,2
1,332,static conscious control,f42887_e_185,NA,10,2,0.682487926,1,0,2
1,333,static conscious control,f42887_e_238,NA,9,1,0.450065049,1,0,2
1,334,static conscious control,f42887_e_069,NA,10,2,1.332483742,1,0,2
1,335,static conscious control,f42887_e_260,NA,9,1,0.535573496,1,0,2
1,336,static conscious control,f42887_e_089,NA,9,1,0.549322561,1,0,2
1,337,static conscious control,f42887_e_210,NA,9,1,0.608738667,1,0,2
1,338,static conscious control,f42887_e_190,NA,10,2,0.575876761,1,0,2
1,339,static conscious control,f42887_e_249,NA,9,1,0.99126886,1,0,2
1,340,static conscious control,f42887_e_068,NA,10,2,0.501960487,1,0,2
1,341,static conscious control,f42887_e_130,NA,10,2,0.591230667,1,0,2
1,342,static conscious control,f42887_e_194,NA,10,2,0.357682847,1,0,2
1,343,static conscious control,f42887_e_202,NA,9,1,0.651459456,1,0,2
1,344,static conscious control,f42887_e_001,NA,9,1,0.796388363,1,0,2
1,345,static conscious control,f42887_e_059,NA,10,2,0.525584919,1,0,2
1,346,static conscious control,f42887_e_118,NA,10,2,0.657698118,1,0,2
1,347,static conscious control,f42887_e_177,NA,10,2,0.51317011,1,0,2
1,348,static conscious control,f42887_e_264,NA,10,2,0.473719961,1,0,2
1,349,static conscious control,f42887_e_048,NA,9,1,0.678704732,1,0,2
1,350,static conscious control,f42887_e_028,NA,10,2,0.462560411,1,0,2
1,351,static conscious control,f42887_e_163,NA,9,1,0.540073891,1,0,2
1,352,static conscious control,f42887_e_129,NA,10,2,0.418666782,1,0,2
1,353,static conscious control,f42887_e_035,NA,9,1,0.680469434,1,0,2
1,354,static conscious control,f42887_e_133,NA,10,2,0.65306834,1,0,2
1,355,static conscious control,f42887_e_224,NA,9,1,0.455576245,1,0,2
1,356,static conscious control,f42887_e_080,NA,9,1,0.561251253,1,0,2
1,357,static conscious control,f42887_e_100,NA,10,2,0.515324515,1,0,2
1,358,static conscious control,f42887_e_248,NA,10,2,0.575234203,1,0,2
1,359,static conscious control,f42887_e_095,NA,10,2,0.549564532,1,0,2
1,360,static conscious control,f42887_e_113,NA,9,1,0.725402166,1,0,2
1,361,static conscious control,f42887_e_240,NA,10,2,0.885336331,1,0,2
1,362,static conscious control,f42887_e_120,NA,9,1,0.4264232,1,0,2
1,363,static conscious control,f42887_e_271,NA,9,1,0.654493413,1,0,2
1,364,static conscious control,f42887_e_004,NA,10,2,0.515195133,1,0,2
1,365,static conscious control,f42887_e_254,NA,9,1,0.823185154,1,0,2
1,366,static conscious control,f42887_e_076,NA,10,2,0.505228949,1,0,2
1,367,static conscious control,f42887_e_022,NA,10,2,0.549324428,1,0,2
1,368,static conscious control,f42887_e_000,NA,10,2,0.632235894,1,0,2
1,369,static conscious control,f42887_e_102,NA,10,2,0.583850267,1,0,2
1,370,static conscious control,f42887_e_253,NA,9,1,0.575939586,1,0,2
1,371,static conscious control,f42887_e_044,NA,9,1,0.579405232,1,0,2
1,372,static conscious control,f42887_e_039,NA,10,2,0.480544576,1,0,2
1,373,static conscious control,f42887_e_252,NA,9,1,0.467722959,1,0,2
1,374,static conscious control,f42887_e_038,NA,10,2,0.409453567,1,0,2
1,375,static conscious control,f42887_e_101,NA,9,1,0.522184275,1,0,2
1,376,static conscious control,f42887_e_152,NA,10,2,0.470190867,1,0,2
1,377,static conscious control,f42887_e_169,NA,9,1,0.440775636,1,0,2
1,378,static conscious control,f42887_e_173,NA,9,1,0.601541144,1,0,2
1,379,static conscious control,f42887_e_147,NA,10,2,0.458717191,1,0,2
1,380,static conscious control,f42887_e_097,NA,10,2,0.481364724,1,0,2
1,381,static conscious control,f42887_e_066,NA,9,1,0.549063174,1,0,2
1,382,static conscious control,f42887_e_137,NA,9,1,0.310845766,1,0,2
1,383,static conscious control,f42887_e_131,NA,10,2,0.399029569,1,0,2
1,384,static conscious control,f42887_e_127,NA,9,1,0.502689196,1,0,2
1,385,static conscious control,f42887_e_024,NA,10,2,0.426427243,1,0,2
1,386,static conscious control,f42887_e_077,NA,10,2,1.088213038,1,0,2
1,387,static conscious control,f42887_e_184,NA,9,1,0.596622122,1,0,2
1,388,static conscious control,f42887_e_206,NA,9,1,0.491403685,1,0,2
1,389,static conscious control,f42887_e_003,NA,9,1,0.427826191,1,0,2
1,390,static conscious control,f42887_e_262,NA,9,1,0.537310518,1,0,2
1,391,static conscious control,f42887_e_188,NA,10,2,0.614731626,1,0,2
1,392,static conscious control,f42887_e_279,NA,10,2,0.634334316,1,0,2
1,393,static conscious control,f42887_e_094,NA,9,1,0.475854461,1,0,2
1,394,static conscious control,f42887_e_062,NA,9,1,0.525505299,1,0,2
1,395,static conscious control,f42887_e_159,NA,10,2,0.598852415,1,0,2
1,396,static conscious control,f42887_e_258,NA,10,2,0.666557086,1,0,2
1,397,static conscious control,f42887_e_093,NA,9,1,0.505086504,1,0,2
1,398,static conscious control,f42887_e_088,NA,9,1,0.645041028,1,0,2
1,399,static conscious control,f42887_e_200,NA,9,1,0.804956531,1,0,2
1,400,static conscious control,f42887_e_138,NA,9,1,0.490999676,1,0,2
1,401,static conscious control,f42887_e_245,NA,10,2,0.759383729,1,0,2
1,402,static conscious control,f42887_e_112,NA,10,2,0.464737209,1,0,2
1,403,static conscious control,f42887_e_273,NA,10,2,1.666715703,1,0,2
1,404,static conscious control,f42887_e_134,NA,9,1,0.645217995,1,0,2
1,405,static conscious control,f42887_e_295,NA,10,2,0.556028057,1,0,2
1,406,static conscious control,f42887_e_191,NA,9,1,0.525927658,1,0,2
1,407,static conscious control,f42887_e_051,NA,10,2,0.461909455,1,0,2
1,408,static conscious control,f42887_e_208,NA,10,2,0.514614467,1,0,2
1,409,static conscious control,f42887_e_229,NA,9,1,0.442711397,1,0,2
1,410,static conscious control,f42887_e_053,NA,10,2,0.372922299,1,0,2
1,411,static conscious control,f42887_e_090,NA,10,2,0.545403765,1,0,2
1,412,static conscious control,f42887_e_054,NA,9,1,0.031306517,1,0,2
1,413,static conscious control,f42887_e_255,NA,9,1,0.492799834,1,0,2
1,414,static conscious control,f42887_e_109,NA,10,2,0.427216289,1,0,2
1,415,static conscious control,f42887_e_121,NA,9,1,0.7274981,1,0,2
1,416,static conscious control,f42887_e_037,NA,10,2,0.58664412,1,0,2
1,417,static conscious control,f42887_e_126,NA,9,1,1.761504233,1,0,2
1,418,static conscious control,f42887_e_124,NA,9,1,0.844670732,1,0,2
1,419,static conscious control,f42887_e_222,NA,9,1,0.702550919,1,0,2
1,420,static conscious control,f42887_e_136,NA,9,1,0.563927231,1,0,2
1,421,static conscious control,f42887_e_292,NA,9,1,2.397407312,1,0,2
1,422,static conscious control,f42887_e_235,NA,10,2,0.678047556,1,0,2
1,423,static conscious control,f42887_e_213,NA,10,2,1.708871999,1,0,2
1,424,static conscious control,f42887_e_165,NA,10,2,0.721923768,1,0,2
1,425,static conscious control,f42887_e_251,NA,9,1,0.833565921,1,0,2
1,426,static conscious control,f42887_e_065,NA,10,2,0.544083815,1,0,2
1,427,static conscious control,f42887_e_018,NA,10,2,0.537707063,1,0,2
1,428,static conscious control,f42887_e_157,NA,10,2,0.556265051,1,0,2
1,429,static conscious control,f42887_e_195,NA,10,2,0.497108955,1,0,2
1,430,static conscious control,f42887_e_277,NA,9,1,0.516273735,1,0,2
1,431,static conscious control,f42887_e_104,NA,9,1,0.645168233,1,0,2
1,432,static conscious control,f42887_e_199,NA,9,1,0.458338685,1,0,2
1,433,static conscious control,f42887_e_103,NA,10,2,0.503538269,1,0,2
1,434,static conscious control,f42887_e_140,NA,9,1,1.478936314,1,0,2
1,435,static conscious control,f42887_e_099,NA,9,1,0.589540608,1,0,2
1,436,static conscious control,f42887_e_294,NA,9,1,0.515158122,1,0,2
1,437,static conscious control,f42887_e_242,NA,9,1,0.506434135,1,0,2
1,438,static conscious control,f42887_e_286,NA,9,1,0.721656917,1,0,2
1,439,static conscious control,f42887_e_164,NA,9,1,0.685383481,1,0,2
1,440,static conscious control,f42887_e_197,NA,10,2,0.537142258,1,0,2
1,441,static conscious control,f42887_e_015,NA,10,2,0.633514168,1,0,2
1,442,static conscious control,f42887_e_289,NA,9,1,0.579451885,1,0,2
1,443,static conscious control,f42887_e_106,NA,10,2,0.474066121,1,0,2
1,444,static conscious control,f42887_e_105,NA,9,1,0.867905151,1,0,2
1,445,static conscious control,f42887_e_233,NA,9,1,0.537298699,1,0,2
1,446,static conscious control,f42887_e_287,NA,9,1,0.455331476,1,0,2
1,447,static conscious control,f42887_e_166,NA,10,2,0.579432602,1,0,2
1,448,static conscious control,f42887_e_012,NA,10,2,0.551404811,1,0,2
1,449,static conscious control,f42887_e_058,NA,10,2,0.508779503,1,0,2
1,450,static conscious control,f42887_e_021,NA,9,1,2.160506744,1,0,2
1,451,static conscious control,f42887_e_151,NA,10,2,0.496990147,1,0,2
1,452,static conscious control,f42887_e_045,NA,10,2,0.655740275,1,0,2
1,453,static conscious control,f42887_e_257,NA,9,1,0.464033381,1,0,2
1,454,static conscious control,f42887_e_228,NA,10,2,1.622077192,1,0,2
1,455,static conscious control,f42887_e_114,NA,10,2,0.715774368,1,0,2
1,456,static conscious control,f42887_e_149,NA,9,1,0.703158954,1,0,2
1,457,static conscious control,f42887_e_141,NA,9,1,0.57078979,1,0,2
1,458,static conscious control,f42887_e_081,NA,9,1,0.573789846,1,0,2
1,459,static conscious control,f42887_e_175,NA,9,1,0.537698354,1,0,2
1,460,static conscious control,f42887_e_247,NA,9,1,0.673317942,1,0,2
1,461,static conscious control,f42887_e_132,NA,9,1,0.520699175,1,0,2
1,462,static conscious control,f42887_e_119,NA,10,2,0.548842664,1,0,2
1,463,static conscious control,f42887_e_298,NA,10,2,0.595437153,1,0,2
1,464,static conscious control,f42887_e_209,NA,10,2,0.532336134,1,0,2
1,465,static conscious control,f42887_e_155,NA,9,1,1.296911957,1,0,2
1,466,static conscious control,f42887_e_168,NA,10,2,0.300523159,1,0,2
1,467,static conscious control,f42887_e_017,NA,10,2,0.444514043,1,0,2
1,468,static conscious control,f42887_e_174,NA,9,1,1.202742971,1,0,2
1,469,static conscious control,f42887_e_214,NA,10,2,0.944053584,1,0,2
1,470,static conscious control,f42887_e_148,NA,10,2,0.72803398,1,0,2
1,471,static conscious control,f42887_e_220,NA,10,2,0.521068351,1,0,2
1,472,static conscious control,f42887_e_160,NA,9,1,0.643897734,1,0,2
1,473,static conscious control,f42887_e_043,NA,10,2,0.481066149,1,0,2
1,474,static conscious control,f42887_e_056,NA,10,2,0.525200504,1,0,2
1,475,static conscious control,f42887_e_265,NA,10,2,0.502670846,1,0,2
1,476,static conscious control,f42887_e_010,NA,9,1,0.866959664,1,0,2
1,477,static conscious control,f42887_e_281,NA,10,2,0.43828409,1,0,2
1,478,static conscious control,f42887_e_139,NA,10,2,0.654536022,1,0,2
1,479,static conscious control,f42887_e_261,NA,9,1,0.927827901,1,0,2
1,480,static conscious control,f42887_e_110,NA,10,2,0.548565549,1,0,2
1,481,static conscious control,f42887_e_276,NA,9,1,0.432886103,1,0,2
1,482,static conscious control,f42887_e_178,NA,9,1,1.037780307,1,0,2
1,483,static conscious control,f42887_e_014,NA,9,1,0.56209877,1,0,2
1,484,static conscious control,f42887_e_091,NA,9,1,0.574431782,1,0,2
1,485,static conscious control,f42887_e_029,NA,10,2,0.520668074,1,0,2
1,486,static conscious control,f42887_e_203,NA,10,2,0.558495966,1,0,2
1,487,static conscious control,f42887_e_268,NA,9,1,0.489035612,1,0,2
1,488,static conscious control,f42887_e_143,NA,10,2,0.522800397,1,0,2
1,489,static conscious control,f42887_e_162,NA,10,2,0.810083001,1,0,2
1,490,static conscious control,f42887_e_031,NA,9,1,0.539405519,1,0,2
1,491,static conscious control,f42887_e_186,NA,9,1,0.605838136,1,0,2
1,492,static conscious control,f42887_e_250,NA,10,2,0.668588639,1,0,2
1,493,static conscious control,f42887_e_116,NA,10,2,0.559367743,1,0,2
1,494,static conscious control,f42887_e_181,NA,9,1,0.574706409,1,0,2
1,495,static conscious control,f42887_e_153,NA,10,2,0.45438941,1,0,2
1,496,static conscious control,f42887_e_025,NA,10,2,0.497092782,1,0,2
1,497,static conscious control,f42887_e_158,NA,10,2,0.512136606,1,0,2
1,498,static conscious control,f42887_e_282,NA,9,1,0.728518854,1,0,2
1,499,static conscious control,f42887_e_246,NA,9,1,0.685485494,1,0,2
1,500,static conscious control,f42887_e_221,NA,10,2,0.645264648,1,0,2
1,501,static conscious control,f42887_e_146,NA,10,2,0.690256473,1,0,2
1,502,static conscious control,f42887_e_172,NA,10,2,0.455581532,1,0,2
1,503,static conscious control,f42887_e_144,NA,9,1,0.556117319,1,0,2
1,504,static conscious control,f42887_e_092,NA,9,1,0.560282439,1,0,2
1,505,static conscious control,f42887_e_216,NA,9,1,0.514752558,1,0,2
1,506,static conscious control,f42887_e_040,NA,9,1,0.408081678,1,0,2
1,507,static conscious control,f42887_e_218,NA,9,1,0.458798366,1,0,2
1,508,static conscious control,f42887_e_049,NA,9,1,0.502041662,1,0,2
1,509,static conscious control,f42887_e_073,NA,9,1,0.375855798,1,0,2
1,510,static conscious control,f42887_e_161,NA,9,1,0.714659999,1,0,2
1,511,static conscious control,f42887_e_061,NA,9,1,0.422595842,1,0,2
1,512,static conscious control,f42887_e_150,NA,10,2,0.539645312,1,0,2
1,513,static conscious control,f42887_e_087,NA,9,1,0.52605362,1,0,2
1,514,static conscious control,f42887_e_225,NA,9,1,0.404878528,1,0,2
1,515,static conscious control,f42887_e_030,NA,9,1,0.551853295,1,0,2
1,516,static conscious control,f42887_e_079,NA,9,1,0.417724716,1,0,2
1,517,static conscious control,f42887_e_272,NA,10,2,0.62667929,1,0,2
1,518,static conscious control,f42887_e_050,NA,10,2,0.54672838,1,0,2
1,519,static conscious control,f42887_e_125,NA,9,1,0.391290879,1,0,2
1,520,static conscious control,f42887_e_215,NA,9,1,0.544378036,1,0,2
1,521,static conscious control,f42887_e_052,NA,10,2,0.569370626,1,0,2
1,522,static conscious control,f42887_e_046,NA,10,2,0.546454065,1,0,2
1,523,static conscious control,f42887_e_071,NA,9,1,0.644855351,1,0,2
1,524,static conscious control,f42887_e_234,NA,9,1,0.450098017,1,0,2
1,525,static conscious control,f42887_e_084,NA,10,2,0.467388306,1,0,2
1,526,static conscious control,f42887_e_290,NA,10,2,0.721433919,1,0,2
1,527,static conscious control,f42887_e_243,NA,10,2,0.497155296,1,0,2
1,528,static conscious control,f42887_e_211,NA,9,1,0.559849817,1,0,2
1,529,static conscious control,f42887_e_283,NA,10,2,0.551317104,1,0,2
1,530,static conscious control,f42887_e_189,NA,10,2,0.555801327,1,0,2
1,531,static conscious control,f42887_e_280,NA,10,2,0.544286908,1,0,2
1,532,static conscious control,f42887_e_067,NA,9,1,0.586053502,1,0,2
1,533,static conscious control,f42887_e_082,NA,10,2,0.463369673,1,0,2
1,534,static conscious control,f42887_e_266,NA,10,2,0.603023445,1,0,2
1,535,static conscious control,f42887_e_156,NA,9,1,0.609633148,1,0,2
1,536,static conscious control,f42887_e_187,NA,10,2,0.582323803,1,0,2
1,537,static conscious control,f42887_e_006,NA,9,1,0.52067305,1,0,2
1,538,static conscious control,f42887_e_201,NA,10,2,0.473421697,1,0,2
1,539,static conscious control,f42887_e_241,NA,10,2,0.664941982,1,0,2
1,540,static conscious control,f42887_e_019,NA,10,2,0.490187614,1,0,2
1,541,static conscious control,f42887_e_236,NA,10,2,0.458025804,1,0,2
1,542,static conscious control,f42887_e_231,NA,10,2,0.461817706,1,0,2
1,543,static conscious control,f42887_e_107,NA,10,2,0.416941268,1,0,2
1,544,static conscious control,f42887_e_170,NA,9,1,0.604116042,1,0,2
1,545,static conscious control,f42887_e_005,NA,10,2,0.478445532,1,0,2
1,546,static conscious control,f42887_e_142,NA,9,1,0.576858637,1,0,2
1,547,static conscious control,f42887_e_227,NA,9,1,0.65644628,1,0,2
1,548,static conscious control,f42887_e_293,NA,9,1,0.803594905,1,0,2
1,549,static conscious control,f42887_e_098,NA,10,2,0.54651067,1,0,2
1,550,static conscious control,f42887_e_009,NA,9,1,0.4921862,1,0,2
1,551,static conscious control,f42887_e_269,NA,10,2,0.519260417,1,0,2
1,552,static conscious control,f42887_e_111,NA,10,2,0.694596384,1,0,2
1,553,static conscious control,f42887_e_085,NA,9,1,0.558495655,1,0,2
1,554,static conscious control,f42887_e_291,NA,9,1,0.86199741,1,0,2
1,555,static conscious control,f42887_e_212,NA,10,2,0.532357595,1,0,2
1,556,static conscious control,f42887_e_297,NA,10,2,0.47989051,1,0,2
1,557,static conscious control,f42887_e_263,NA,10,2,0.575127835,1,0,2
1,558,static conscious control,f42887_e_179,NA,9,1,0.708998583,1,0,2
1,559,static conscious control,f42887_e_180,NA,10,2,0.610118021,1,0,2
1,560,static conscious control,f42887_e_064,NA,9,1,0.541489634,1,0,2
1,561,static conscious control,f42887_e_063,NA,10,2,0.4458822,1,0,2
1,562,static conscious control,f42887_e_074,NA,10,2,0.767783949,1,0,2
1,563,static conscious control,f42887_e_117,NA,9,1,0.450193498,1,0,2
1,564,static conscious control,f42887_e_223,NA,10,2,0.644736543,1,0,2
1,565,static conscious control,f42887_e_145,NA,9,1,0.582903225,1,0,2
1,566,static conscious control,f42887_e_176,NA,9,1,0.650360016,1,0,2
1,567,static conscious control,f42887_e_047,NA,9,1,0.86516386,1,0,2
1,568,static conscious control,f42887_e_198,NA,10,2,0.471781712,1,0,2
1,569,static conscious control,f42887_e_036,NA,10,2,0.576989263,1,0,2
1,570,static conscious control,f42887_e_070,NA,10,2,0.438257031,1,0,2
1,571,static conscious control,f42887_e_239,NA,10,2,0.500604459,1,0,2
1,572,static conscious control,f42887_e_008,NA,9,1,0.549633577,1,0,2
1,573,static conscious control,f42887_e_122,NA,10,2,0.417846323,1,0,2
1,574,static conscious control,f42887_e_171,NA,9,1,0.501535639,1,0,2
1,575,static conscious control,f42887_e_256,NA,9,1,0.97469826,1,0,2
1,576,static conscious control,f42887_e_083,NA,9,1,0.654852636,1,0,2
1,577,static conscious control,f42887_e_183,NA,9,1,0.57955452,1,0,2
1,578,static conscious control,f42887_e_285,NA,10,2,0.619672731,1,0,2
1,579,static conscious control,f42887_e_259,NA,10,2,0.566472894,1,0,2
1,580,static conscious control,f42887_e_167,NA,10,2,0.468048592,1,0,2
1,581,static conscious control,f42887_e_060,NA,9,1,0.551758124,1,0,2
1,582,static conscious control,f42887_e_288,NA,9,1,0.538867151,1,0,2
1,583,static conscious control,f42887_e_230,NA,10,2,0.392850312,1,0,2
1,584,static conscious control,f42887_e_270,NA,9,1,0.680117987,1,0,2
1,585,static conscious control,f42887_e_205,NA,10,2,0.45520707,1,0,2
1,586,static conscious control,f42887_e_108,NA,10,2,0.508775771,1,0,2
1,587,static conscious control,f42887_e_267,NA,10,2,0.605149236,1,0,2
1,588,static conscious control,f42887_e_219,NA,10,2,0.410754235,1,0,2
1,589,static conscious control,f42887_e_182,NA,9,1,0.6047981,1,0,2
1,590,static conscious control,f42887_e_011,NA,9,1,0.864357397,1,0,2
1,591,static conscious control,f42887_e_204,NA,9,1,0.579617345,1,0,2
1,592,static conscious control,f42887_e_192,NA,9,1,0.732482125,1,0,2
1,593,static conscious control,f42887_e_207,NA,9,1,0.616340821,1,0,2
1,594,static conscious control,f42887_e_274,NA,9,1,0.737578115,1,0,2
1,595,static conscious control,f42887_e_026,NA,10,2,0.607949309,1,0,2
1,596,static conscious control,f42887_e_296,NA,9,1,0.41881327,1,0,2
1,597,static conscious control,f42887_e_226,NA,10,2,0.609583074,1,0,2
1,598,static conscious control,f42887_e_237,NA,10,2,0.508707348,1,0,2
1,599,static conscious control,f42887_e_016,NA,9,1,0.358445768,1,0,2
1,600,static conscious control,f42887_e_002,NA,9,1,0.488245944,1,0,2
2,1,static conscious control,f42887_e_278,NA,9,1,0.792638713,1,0,1
2,2,static conscious control,f42887_e_130,NA,10,2,0.54337839,1,0,1
2,3,static conscious control,f42887_e_133,NA,9,1,0.383388803,1,0,1
2,4,static conscious control,f42887_e_230,NA,10,2,0.393603552,1,0,1
2,5,static conscious control,f42887_e_236,NA,9,1,0.393044342,1,0,1
2,6,static conscious control,f42887_e_293,NA,9,1,0.433486572,1,0,1
2,7,static conscious control,f42887_e_032,NA,9,1,0.363724721,1,0,1
2,8,static conscious control,f42887_e_054,NA,9,1,0.413562479,1,0,1
2,9,static conscious control,f42887_e_056,NA,9,1,0.403336534,1,0,1
2,10,static conscious control,f42887_e_222,NA,10,2,0.523442168,1,0,1
2,11,static conscious control,f42887_e_216,NA,9,1,0.393498428,1,0,1
2,12,static conscious control,f42887_e_209,NA,10,2,0.42344817,1,0,1
2,13,static conscious control,f42887_e_182,NA,10,2,0.443495115,1,0,1
2,14,static conscious control,f42887_e_040,NA,10,2,0.593673344,1,0,1
2,15,static conscious control,f42887_e_260,NA,10,2,0.503431301,1,0,1
2,16,static conscious control,f42887_e_234,NA,9,1,0.363584763,1,0,1
2,17,static conscious control,f42887_e_117,NA,10,1,0.383391291,0,0,1
2,18,static conscious control,f42887_e_121,NA,9,1,0.493482472,1,0,1
2,19,static conscious control,f42887_e_107,NA,10,2,0.503351058,1,0,1
2,20,static conscious control,f42887_e_181,NA,10,2,0.453594165,1,0,1
2,21,static conscious control,f42887_e_146,NA,10,2,0.493549341,1,0,1
2,22,static conscious control,f42887_e_023,NA,10,2,0.443700076,1,0,1
2,23,static conscious control,f42887_e_016,NA,10,2,0.443612369,1,0,1
2,24,static conscious control,f42887_e_029,NA,10,2,0.463408323,1,0,1
2,25,static conscious control,f42887_e_227,NA,10,2,0.493553695,1,0,1
2,26,static conscious control,f42887_e_245,NA,9,1,0.573445698,1,0,1
2,27,static conscious control,f42887_e_137,NA,10,2,0.673516516,1,0,1
2,28,static conscious control,f42887_e_199,NA,10,2,0.393454263,1,0,1
2,29,static conscious control,f42887_e_192,NA,9,1,0.523506548,1,0,1
2,30,static conscious control,f42887_e_059,NA,9,1,0.703427693,1,0,1
2,31,static conscious control,f42887_e_046,NA,9,1,0.473719175,1,0,1
2,32,static conscious control,f42887_e_102,NA,9,1,0.55354773,1,0,1
2,33,static conscious control,f42887_e_164,NA,9,1,0.491959731,1,0,1
2,34,static conscious control,f42887_e_225,NA,9,1,0.353444659,1,0,1
2,35,static conscious control,f42887_e_295,NA,10,2,0.443554209,1,0,1
2,36,static conscious control,f42887_e_266,NA,9,1,0.463402724,1,0,1
2,37,static conscious control,f42887_e_288,NA,9,1,0.513461616,1,0,1
2,38,static conscious control,f42887_e_190,NA,10,2,0.463599599,1,0,1
2,39,static conscious control,f42887_e_007,NA,10,2,0.473406603,1,0,1
2,40,static conscious control,f42887_e_198,NA,10,2,0.382985725,1,0,1
2,41,static conscious control,f42887_e_088,NA,10,2,0.363404995,1,0,1
2,42,static conscious control,f42887_e_123,NA,9,1,0.473489956,1,0,1
2,43,static conscious control,f42887_e_136,NA,9,1,0.43345858,1,0,1
2,44,static conscious control,f42887_e_053,NA,10,2,0.513620235,1,0,1
2,45,static conscious control,f42887_e_015,NA,9,1,0.373696564,1,0,1
2,46,static conscious control,f42887_e_058,NA,10,2,0.433530114,1,0,1
2,47,static conscious control,f42887_e_120,NA,9,1,0.43343401,1,0,1
2,48,static conscious control,f42887_e_238,NA,9,1,0.433367763,1,0,1
2,49,static conscious control,f42887_e_026,NA,10,2,0.553361431,1,0,1
2,50,static conscious control,f42887_e_037,NA,10,2,0.513454462,1,0,1
2,51,static conscious control,f42887_e_034,NA,10,2,0.483500365,1,0,1
2,52,static conscious control,f42887_e_277,NA,10,2,0.56346328,1,0,1
2,53,static conscious control,f42887_e_093,NA,9,1,0.423042603,1,0,1
2,54,static conscious control,f42887_e_035,NA,10,2,0.453411909,1,0,1
2,55,static conscious control,f42887_e_265,NA,9,1,0.593699158,1,0,1
2,56,static conscious control,f42887_e_132,NA,9,1,0.473454189,1,0,1
2,57,static conscious control,f42887_e_253,NA,9,1,0.423565735,1,0,1
2,58,static conscious control,f42887_e_276,NA,9,1,0.423511307,1,0,1
2,59,static conscious control,f42887_e_273,NA,9,1,0.443516576,1,0,1
2,60,static conscious control,f42887_e_070,NA,9,1,0.45343057,1,0,1
2,61,static conscious control,f42887_e_103,NA,9,1,0.473522923,1,0,1
2,62,static conscious control,f42887_e_019,NA,10,2,0.513450419,1,0,1
2,63,static conscious control,f42887_e_177,NA,10,2,0.533476837,1,0,1
2,64,static conscious control,f42887_e_069,NA,9,1,0.473463519,1,0,1
2,65,static conscious control,f42887_e_045,NA,10,2,0.463577516,1,0,1
2,66,static conscious control,f42887_e_259,NA,9,1,0.42346932,1,0,1
2,67,static conscious control,f42887_e_170,NA,9,2,0.393620658,0,0,1
2,68,static conscious control,f42887_e_257,NA,10,2,0.813529449,1,0,1
2,69,static conscious control,f42887_e_176,NA,9,1,0.443594952,1,0,1
2,70,static conscious control,f42887_e_129,NA,10,2,0.483360407,1,0,1
2,71,static conscious control,f42887_e_298,NA,10,2,0.594230687,1,0,1
2,72,static conscious control,f42887_e_169,NA,10,2,0.483522759,1,0,1
2,73,static conscious control,f42887_e_244,NA,9,1,0.383729679,1,0,1
2,74,static conscious control,f42887_e_115,NA,10,2,0.373726733,1,0,1
2,75,static conscious control,f42887_e_134,NA,10,2,0.473574863,1,0,1
2,76,static conscious control,f42887_e_048,NA,9,2,0.403399981,0,0,1
2,77,static conscious control,f42887_e_083,NA,10,2,0.533525667,1,0,1
2,78,static conscious control,f42887_e_106,NA,9,1,0.513700166,1,0,1
2,79,static conscious control,f42887_e_076,NA,9,1,0.523536095,1,0,1
2,80,static conscious control,f42887_e_180,NA,9,1,0.493503622,1,0,1
2,81,static conscious control,f42887_e_242,NA,10,2,0.513559897,1,0,1
2,82,static conscious control,f42887_e_294,NA,9,1,0.48349881,1,0,1
2,83,static conscious control,f42887_e_284,NA,9,1,0.513620235,1,0,1
2,84,static conscious control,f42887_e_082,NA,10,2,0.603495899,1,0,1
2,85,static conscious control,f42887_e_258,NA,10,2,0.583482233,1,0,1
2,86,static conscious control,f42887_e_159,NA,10,2,0.623669117,1,0,1
2,87,static conscious control,f42887_e_078,NA,9,1,0.523517123,1,0,1
2,88,static conscious control,f42887_e_066,NA,10,2,0.464115888,1,0,1
2,89,static conscious control,f42887_e_269,NA,9,1,0.523448699,1,0,1
2,90,static conscious control,f42887_e_028,NA,10,2,0.493450438,1,0,1
2,91,static conscious control,f42887_e_162,NA,10,2,0.603660738,1,0,1
2,92,static conscious control,f42887_e_228,NA,9,1,0.623510809,1,0,1
2,93,static conscious control,f42887_e_212,NA,9,1,0.623599449,1,0,1
2,94,static conscious control,f42887_e_074,NA,10,2,0.573790305,1,0,1
2,95,static conscious control,f42887_e_255,NA,10,2,0.483523692,1,0,1
2,96,static conscious control,f42887_e_283,NA,9,1,0.403603698,1,0,1
2,97,static conscious control,f42887_e_263,NA,9,1,0.443538658,1,0,1
2,98,static conscious control,f42887_e_073,NA,9,1,0.403452232,1,0,1
2,99,static conscious control,f42887_e_239,NA,10,2,0.463529931,1,0,1
2,100,static conscious control,f42887_e_020,NA,9,1,0.363473419,1,0,1
2,101,static conscious control,f42887_e_101,NA,9,1,0.701357249,1,0,1
2,102,static conscious control,f42887_e_021,NA,10,2,0.553524093,1,0,1
2,103,static conscious control,f42887_e_147,NA,10,2,0.66340316,1,0,1
2,104,static conscious control,f42887_e_087,NA,9,1,0.673469864,1,0,1
2,105,static conscious control,f42887_e_229,NA,9,1,0.423506331,1,0,1
2,106,static conscious control,f42887_e_188,NA,10,2,0.553547108,1,0,1
2,107,static conscious control,f42887_e_011,NA,10,2,0.493447016,1,0,1
2,108,static conscious control,f42887_e_084,NA,10,2,0.523567197,1,0,1
2,109,static conscious control,f42887_e_150,NA,9,1,0.48335823,1,0,1
2,110,static conscious control,f42887_e_012,NA,9,1,0.643454807,1,0,1
2,111,static conscious control,f42887_e_010,NA,10,1,1.233506663,0,0,1
2,112,static conscious control,f42887_e_000,NA,9,1,0.553398131,1,0,1
2,113,static conscious control,f42887_e_187,NA,9,1,0.513442644,1,0,1
2,114,static conscious control,f42887_e_140,NA,9,1,0.453484687,1,0,1
2,115,static conscious control,f42887_e_141,NA,9,1,0.54350653,1,0,1
2,116,static conscious control,f42887_e_052,NA,10,2,0.493719779,1,0,1
2,117,static conscious control,f42887_e_062,NA,10,2,0.743486127,1,0,1
2,118,static conscious control,f42887_e_004,NA,10,2,0.433488127,1,0,1
2,119,static conscious control,f42887_e_220,NA,9,1,0.393663889,1,0,1
2,120,static conscious control,f42887_e_148,NA,9,1,0.423584396,1,0,1
2,121,static conscious control,f42887_e_144,NA,9,1,0.453443633,1,0,1
2,122,static conscious control,f42887_e_001,NA,10,2,0.443584999,1,0,1
2,123,static conscious control,f42887_e_044,NA,10,2,0.463468349,1,0,1
2,124,static conscious control,f42887_e_061,NA,9,1,0.473434594,1,0,1
2,125,static conscious control,f42887_e_072,NA,10,2,0.433377405,1,0,1
2,126,static conscious control,f42887_e_014,NA,10,2,0.453404755,1,0,1
2,127,static conscious control,f42887_e_153,NA,9,1,0.443623877,1,0,1
2,128,static conscious control,f42887_e_214,NA,9,1,0.483453091,1,0,1
2,129,static conscious control,f42887_e_114,NA,9,1,0.463549836,1,0,1
2,130,static conscious control,f42887_e_193,NA,9,1,0.513591621,1,0,1
2,131,static conscious control,f42887_e_095,NA,10,2,0.393507447,1,0,1
2,132,static conscious control,f42887_e_168,NA,9,1,0.433455781,1,0,1
2,133,static conscious control,f42887_e_163,NA,10,2,0.323577958,1,0,1
2,134,static conscious control,f42887_e_022,NA,9,1,0.463521533,1,0,1
2,135,static conscious control,f42887_e_173,NA,10,2,0.423618608,1,0,1
2,136,static conscious control,f42887_e_149,NA,9,1,0.403543982,1,0,1
2,137,static conscious control,f42887_e_094,NA,9,1,0.5434577,1,0,1
2,138,static conscious control,f42887_e_116,NA,9,1,0.433395755,1,0,1
2,139,static conscious control,f42887_e_158,NA,10,2,0.433331996,1,0,1
2,140,static conscious control,f42887_e_241,NA,10,2,0.493514196,1,0,1
2,141,static conscious control,f42887_e_122,NA,10,2,0.423383168,1,0,1
2,142,static conscious control,f42887_e_104,NA,9,1,0.493375482,1,0,1
2,143,static conscious control,f42887_e_243,NA,10,2,0.433628085,1,0,1
2,144,static conscious control,f42887_e_246,NA,9,1,0.373473254,1,0,1
2,145,static conscious control,f42887_e_178,NA,10,2,0.323551832,1,0,1
2,146,static conscious control,f42887_e_008,NA,10,1,0.303477829,0,0,1
2,147,static conscious control,f42887_e_274,NA,9,1,0.68365662,1,0,1
2,148,static conscious control,f42887_e_050,NA,10,2,0.463651849,1,0,1
2,149,static conscious control,f42887_e_118,NA,10,2,0.44341705,1,0,1
2,150,static conscious control,f42887_e_155,NA,10,2,0.533499852,1,0,1
2,151,static conscious control,f42887_e_202,NA,10,2,0.493558672,1,0,1
2,152,static conscious control,f42887_e_281,NA,10,2,0.453570217,1,0,1
2,153,static conscious control,f42887_e_138,NA,9,1,0.383435145,1,0,1
2,154,static conscious control,f42887_e_079,NA,9,1,0.413529822,1,0,1
2,155,static conscious control,f42887_e_184,NA,10,2,0.373455837,1,0,1
2,156,static conscious control,f42887_e_174,NA,10,2,0.383502325,1,0,1
2,157,static conscious control,f42887_e_067,NA,10,2,0.393405744,1,0,1
2,158,static conscious control,f42887_e_183,NA,10,2,0.403484578,1,0,1
2,159,static conscious control,f42887_e_232,NA,9,1,0.453575815,1,0,1
2,160,static conscious control,f42887_e_142,NA,9,1,0.513478722,1,0,1
2,161,static conscious control,f42887_e_231,NA,10,2,0.403585037,1,0,1
2,162,static conscious control,f42887_e_196,NA,9,1,0.413454867,1,0,1
2,163,static conscious control,f42887_e_261,NA,9,2,0.34345882,0,0,1
2,164,static conscious control,f42887_e_296,NA,9,1,0.443595574,1,0,1
2,165,static conscious control,f42887_e_194,NA,9,1,0.473510483,1,0,1
2,166,static conscious control,f42887_e_024,NA,9,1,0.503565349,1,0,1
2,167,static conscious control,f42887_e_060,NA,10,2,0.433533846,1,0,1
2,168,static conscious control,f42887_e_224,NA,10,2,0.553721278,1,0,1
2,169,static conscious control,f42887_e_233,NA,9,1,0.413344144,1,0,1
2,170,static conscious control,f42887_e_152,NA,9,1,0.523507792,1,0,1
2,171,static conscious control,f42887_e_191,NA,10,2,0.653555101,1,0,1
2,172,static conscious control,f42887_e_091,NA,9,1,0.503974337,1,0,1
2,173,static conscious control,f42887_e_038,NA,9,1,1.183456792,1,0,1
2,174,static conscious control,f42887_e_006,NA,9,1,0.533402815,1,0,1
2,175,static conscious control,f42887_e_017,NA,9,1,0.413578652,1,0,1
2,176,static conscious control,f42887_e_126,NA,10,2,0.423344913,1,0,1
2,177,static conscious control,f42887_e_086,NA,10,2,0.443359512,1,0,1
2,178,static conscious control,f42887_e_175,NA,10,2,0.443577224,1,0,1
2,179,static conscious control,f42887_e_064,NA,10,2,0.503614179,1,0,1
2,180,static conscious control,f42887_e_090,NA,10,2,0.423451592,1,0,1
2,181,static conscious control,f42887_e_128,NA,9,1,0.3835468,1,0,1
2,182,static conscious control,f42887_e_127,NA,9,1,0.383498904,1,0,1
2,183,static conscious control,f42887_e_049,NA,10,2,0.443607082,1,0,1
2,184,static conscious control,f42887_e_256,NA,9,1,0.473575174,1,0,1
2,185,static conscious control,f42887_e_055,NA,10,2,0.403468094,1,0,1
2,186,static conscious control,f42887_e_165,NA,10,2,0.473624937,1,0,1
2,187,static conscious control,f42887_e_031,NA,9,1,0.473472228,1,0,1
2,188,static conscious control,f42887_e_075,NA,10,2,0.423502909,1,0,1
2,189,static conscious control,f42887_e_154,NA,9,1,0.433633683,1,0,1
2,190,static conscious control,f42887_e_057,NA,10,2,0.383588477,1,0,1
2,191,static conscious control,f42887_e_204,NA,9,1,0.783603654,1,0,1
2,192,static conscious control,f42887_e_201,NA,9,1,0.553381647,1,0,1
2,193,static conscious control,f42887_e_081,NA,9,1,0.473572375,1,0,1
2,194,static conscious control,f42887_e_290,NA,10,2,0.503480753,1,0,1
2,195,static conscious control,f42887_e_047,NA,10,2,0.51365258,1,0,1
2,196,static conscious control,f42887_e_039,NA,9,1,0.44346588,1,0,1
2,197,static conscious control,f42887_e_108,NA,9,1,0.523528009,1,0,1
2,198,static conscious control,f42887_e_262,NA,9,1,0.473558379,1,0,1
2,199,static conscious control,f42887_e_206,NA,10,2,0.803389344,1,0,1
2,200,static conscious control,f42887_e_097,NA,9,1,0.47812225,1,0,1
2,201,static conscious control,f42887_e_208,NA,10,2,0.842534009,1,0,1
2,202,static conscious control,f42887_e_119,NA,10,2,0.543640267,1,0,1
2,203,static conscious control,f42887_e_226,NA,10,2,0.593481757,1,0,1
2,204,static conscious control,f42887_e_185,NA,9,1,0.433546598,1,0,1
2,205,static conscious control,f42887_e_203,NA,9,1,0.593435416,1,0,1
2,206,static conscious control,f42887_e_268,NA,10,2,0.40356762,1,0,1
2,207,static conscious control,f42887_e_156,NA,10,2,0.433527937,1,0,1
2,208,static conscious control,f42887_e_189,NA,10,2,0.393560631,1,0,1
2,209,static conscious control,f42887_e_171,NA,9,1,0.523511214,1,0,1
2,210,static conscious control,f42887_e_143,NA,9,1,0.473639555,1,0,1
2,211,static conscious control,f42887_e_223,NA,9,1,0.433713303,1,0,1
2,212,static conscious control,f42887_e_270,NA,9,1,0.473460409,1,0,1
2,213,static conscious control,f42887_e_286,NA,10,2,0.623612823,1,0,1
2,214,static conscious control,f42887_e_112,NA,10,2,0.453539426,1,0,1
2,215,static conscious control,f42887_e_043,NA,9,1,0.383548044,1,0,1
2,216,static conscious control,f42887_e_036,NA,9,1,0.42348487,1,0,1
2,217,static conscious control,f42887_e_251,NA,10,2,0.493482472,1,0,1
2,218,static conscious control,f42887_e_013,NA,9,1,0.503500969,1,0,1
2,219,static conscious control,f42887_e_264,NA,10,2,0.343721007,1,0,1
2,220,static conscious control,f42887_e_279,NA,9,1,0.443573181,1,0,1
2,221,static conscious control,f42887_e_071,NA,9,1,0.363644167,1,0,1
2,222,static conscious control,f42887_e_065,NA,10,2,0.423742393,1,0,1
2,223,static conscious control,f42887_e_249,NA,9,1,0.49340845,1,0,1
2,224,static conscious control,f42887_e_030,NA,9,1,0.593450033,1,0,1
2,225,static conscious control,f42887_e_125,NA,10,2,0.473503951,1,0,1
2,226,static conscious control,f42887_e_003,NA,10,2,0.553524404,1,0,1
2,227,static conscious control,f42887_e_211,NA,10,2,0.693192107,1,0,1
2,228,static conscious control,f42887_e_157,NA,9,1,0.503605471,1,0,1
2,229,static conscious control,f42887_e_085,NA,10,1,0.793364317,0,0,1
2,230,static conscious control,f42887_e_131,NA,10,2,1.573310405,1,0,1
2,231,static conscious control,f42887_e_068,NA,10,2,0.633533349,1,0,1
2,232,static conscious control,f42887_e_145,NA,9,1,0.493232414,1,0,1
2,233,static conscious control,f42887_e_033,NA,9,1,1.023432682,1,0,1
2,234,static conscious control,f42887_e_092,NA,9,1,0.503445608,1,0,1
2,235,static conscious control,f42887_e_235,NA,9,1,0.533552725,1,0,1
2,236,static conscious control,f42887_e_025,NA,9,1,0.5135515,1,0,1
2,237,static conscious control,f42887_e_018,NA,10,2,0.483422922,1,0,1
2,238,static conscious control,f42887_e_213,NA,10,2,0.543670125,1,0,1
2,239,static conscious control,f42887_e_280,NA,9,1,0.493553384,1,0,1
2,240,static conscious control,f42887_e_207,NA,10,2,0.403550825,1,0,1
2,241,static conscious control,f42887_e_297,NA,10,2,0.523540449,1,0,1
2,242,static conscious control,f42887_e_200,NA,9,1,0.483465842,1,0,1
2,243,static conscious control,f42887_e_099,NA,10,2,0.44348423,1,0,1
2,244,static conscious control,f42887_e_160,NA,10,2,0.453450786,1,0,1
2,245,static conscious control,f42887_e_289,NA,10,2,0.503543578,1,0,1
2,246,static conscious control,f42887_e_135,NA,10,2,0.483479838,1,0,1
2,247,static conscious control,f42887_e_172,NA,9,1,0.473504573,1,0,1
2,248,static conscious control,f42887_e_124,NA,10,2,0.4336144,1,0,1
2,249,static conscious control,f42887_e_215,NA,9,1,0.54367479,1,0,1
2,250,static conscious control,f42887_e_237,NA,9,1,0.603486569,1,0,1
2,251,static conscious control,f42887_e_089,NA,9,1,0.543440905,1,0,1
2,252,static conscious control,f42887_e_248,NA,10,2,0.433471643,1,0,1
2,253,static conscious control,f42887_e_051,NA,9,1,0.559837126,1,0,1
2,254,static conscious control,f42887_e_272,NA,10,2,0.663638911,1,0,1
2,255,static conscious control,f42887_e_221,NA,9,1,0.55360278,1,0,1
2,256,static conscious control,f42887_e_219,NA,10,2,0.403533719,1,0,1
2,257,static conscious control,f42887_e_291,NA,10,2,0.483310956,1,0,1
2,258,static conscious control,f42887_e_100,NA,10,2,0.663543429,1,0,1
2,259,static conscious control,f42887_e_240,NA,10,2,0.513554299,1,0,1
2,260,static conscious control,f42887_e_098,NA,10,2,0.483610465,1,0,1
2,261,static conscious control,f42887_e_299,NA,10,2,0.513490229,1,0,1
2,262,static conscious control,f42887_e_139,NA,10,2,0.393533884,1,0,1
2,263,static conscious control,f42887_e_275,NA,10,2,0.473543451,1,0,1
2,264,static conscious control,f42887_e_063,NA,9,1,0.623612823,1,0,1
2,265,static conscious control,f42887_e_252,NA,9,1,0.543621606,1,0,1
2,266,static conscious control,f42887_e_197,NA,9,1,0.533608708,1,0,1
2,267,static conscious control,f42887_e_041,NA,10,2,0.443390924,1,0,1
2,268,static conscious control,f42887_e_110,NA,9,1,0.812775231,1,0,1
2,269,static conscious control,f42887_e_287,NA,9,1,0.473698648,1,0,1
2,270,static conscious control,f42887_e_271,NA,10,2,0.53352971,1,0,1
2,271,static conscious control,f42887_e_282,NA,10,2,0.54365955,1,0,1
2,272,static conscious control,f42887_e_210,NA,10,2,0.523404846,1,0,1
2,273,static conscious control,f42887_e_166,NA,10,2,0.453463538,1,0,1
2,274,static conscious control,f42887_e_186,NA,9,1,0.523283238,1,0,1
2,275,static conscious control,f42887_e_109,NA,9,1,0.56374755,1,0,1
2,276,static conscious control,f42887_e_205,NA,9,1,0.603542863,1,0,1
2,277,static conscious control,f42887_e_217,NA,9,1,0.493555873,1,0,1
2,278,static conscious control,f42887_e_254,NA,10,2,0.473501774,1,0,1
2,279,static conscious control,f42887_e_285,NA,10,2,0.503461469,1,0,1
2,280,static conscious control,f42887_e_218,NA,10,2,0.473438016,1,0,1
2,281,static conscious control,f42887_e_195,NA,10,2,0.603494966,1,0,1
2,282,static conscious control,f42887_e_161,NA,10,2,0.44344753,1,0,1
2,283,static conscious control,f42887_e_113,NA,10,2,0.449847648,1,0,1
2,284,static conscious control,f42887_e_005,NA,10,2,0.563544144,1,0,1
2,285,static conscious control,f42887_e_247,NA,10,2,0.47342091,1,0,1
2,286,static conscious control,f42887_e_002,NA,9,1,0.593443191,1,0,1
2,287,static conscious control,f42887_e_105,NA,10,2,0.403519101,1,0,1
2,288,static conscious control,f42887_e_167,NA,9,1,0.48350783,1,0,1
2,289,static conscious control,f42887_e_009,NA,9,1,0.513515111,1,0,1
2,290,static conscious control,f42887_e_080,NA,9,1,0.513561141,1,0,1
2,291,static conscious control,f42887_e_250,NA,9,1,0.543481337,1,0,1
2,292,static conscious control,f42887_e_292,NA,10,2,0.533489589,1,0,1
2,293,static conscious control,f42887_e_042,NA,10,2,0.693506856,1,0,1
2,294,static conscious control,f42887_e_151,NA,10,2,0.683496135,1,0,1
2,295,static conscious control,f42887_e_179,NA,10,2,0.843443735,1,0,1
2,296,static conscious control,f42887_e_267,NA,10,2,0.643425572,1,0,1
2,297,static conscious control,f42887_e_096,NA,10,2,0.513406254,1,0,1
2,298,static conscious control,f42887_e_111,NA,9,1,0.684176953,1,0,1
2,299,static conscious control,f42887_e_027,NA,10,2,0.433705217,1,0,1
2,300,static conscious control,f42887_e_077,NA,10,2,0.393504337,1,0,1
2,301,static conscious control,f42887_e_170,NA,9,1,0.522755441,1,0,2
2,302,static conscious control,f42887_e_019,NA,10,2,0.313734565,1,0,2
2,303,static conscious control,f42887_e_145,NA,9,1,0.423728708,1,0,2
2,304,static conscious control,f42887_e_251,NA,10,2,0.40357384,1,0,2
2,305,static conscious control,f42887_e_282,NA,10,2,0.443473655,1,0,2
2,306,static conscious control,f42887_e_196,NA,9,1,0.383376985,1,0,2
2,307,static conscious control,f42887_e_238,NA,9,1,0.413561857,1,0,2
2,308,static conscious control,f42887_e_283,NA,9,1,0.423478339,1,0,2
2,309,static conscious control,f42887_e_218,NA,10,2,0.403664035,1,0,2
2,310,static conscious control,f42887_e_200,NA,9,1,0.363719745,1,0,2
2,311,static conscious control,f42887_e_167,NA,9,1,0.383610248,1,0,2
2,312,static conscious control,f42887_e_263,NA,9,2,0.203619124,0,0,2
2,313,static conscious control,f42887_e_150,NA,9,1,0.533557701,1,0,2
2,314,static conscious control,f42887_e_254,NA,10,2,0.353499709,1,0,2
2,315,static conscious control,f42887_e_240,NA,10,2,0.473444858,1,0,2
2,316,static conscious control,f42887_e_156,NA,10,2,0.43361129,1,0,2
2,317,static conscious control,f42887_e_231,NA,10,2,0.533609019,1,0,2
2,318,static conscious control,f42887_e_140,NA,9,1,0.473640177,1,0,2
2,319,static conscious control,f42887_e_076,NA,9,1,0.413524223,1,0,2
2,320,static conscious control,f42887_e_242,NA,10,2,0.383550532,1,0,2
2,321,static conscious control,f42887_e_136,NA,9,1,0.383460026,1,0,2
2,322,static conscious control,f42887_e_096,NA,10,2,0.453563996,1,0,2
2,323,static conscious control,f42887_e_059,NA,9,1,0.463545481,1,0,2
2,324,static conscious control,f42887_e_179,NA,10,2,0.363637014,1,0,2
2,325,static conscious control,f42887_e_046,NA,9,2,0.413537908,0,0,2
2,326,static conscious control,f42887_e_129,NA,10,2,0.59351939,1,0,2
2,327,static conscious control,f42887_e_205,NA,9,1,0.483433497,1,0,2
2,328,static conscious control,f42887_e_243,NA,10,2,0.42358875,1,0,2
2,329,static conscious control,f42887_e_085,NA,10,2,0.523612294,1,0,2
2,330,static conscious control,f42887_e_159,NA,10,2,0.483530845,1,0,2
2,331,static conscious control,f42887_e_081,NA,9,1,0.453511745,1,0,2
2,332,static conscious control,f42887_e_274,NA,9,1,0.483458067,1,0,2
2,333,static conscious control,f42887_e_174,NA,10,2,0.703522864,1,0,2
2,334,static conscious control,f42887_e_265,NA,9,1,0.553606201,1,0,2
2,335,static conscious control,f42887_e_108,NA,9,1,0.683479341,1,0,2
2,336,static conscious control,f42887_e_258,NA,10,2,0.414145636,1,0,2
2,337,static conscious control,f42887_e_065,NA,10,2,0.573459071,1,0,2
2,338,static conscious control,f42887_e_099,NA,10,2,0.603471951,1,0,2
2,339,static conscious control,f42887_e_029,NA,10,2,0.503537669,1,0,2
2,340,static conscious control,f42887_e_249,NA,9,1,0.483473618,1,0,2
2,341,static conscious control,f42887_e_294,NA,9,1,0.633478299,1,0,2
2,342,static conscious control,f42887_e_259,NA,9,1,0.463397126,1,0,2
2,343,static conscious control,f42887_e_105,NA,10,1,0.433643324,0,0,2
2,344,static conscious control,f42887_e_001,NA,10,2,0.553530313,1,0,2
2,345,static conscious control,f42887_e_209,NA,10,2,0.563432489,1,0,2
2,346,static conscious control,f42887_e_155,NA,10,2,0.593412711,1,0,2
2,347,static conscious control,f42887_e_206,NA,10,2,0.593477714,1,0,2
2,348,static conscious control,f42887_e_110,NA,9,1,0.51340501,1,0,2
2,349,static conscious control,f42887_e_020,NA,9,1,0.564042705,1,0,2
2,350,static conscious control,f42887_e_139,NA,10,2,0.463217669,1,0,2
2,351,static conscious control,f42887_e_036,NA,9,1,0.543609165,1,0,2
2,352,static conscious control,f42887_e_072,NA,10,2,0.453544713,1,0,2
2,353,static conscious control,f42887_e_165,NA,10,2,0.693422259,1,0,2
2,354,static conscious control,f42887_e_040,NA,10,2,0.523551646,1,0,2
2,355,static conscious control,f42887_e_128,NA,9,1,0.633733955,1,0,2
2,356,static conscious control,f42887_e_103,NA,9,1,0.594087308,1,0,2
2,357,static conscious control,f42887_e_039,NA,9,1,0.583608817,1,0,2
2,358,static conscious control,f42887_e_286,NA,10,2,0.543430952,1,0,2
2,359,static conscious control,f42887_e_230,NA,10,2,0.53358476,1,0,2
2,360,static conscious control,f42887_e_284,NA,9,1,0.503830958,1,0,2
2,361,static conscious control,f42887_e_000,NA,9,1,0.553609934,1,0,2
2,362,static conscious control,f42887_e_101,NA,9,1,0.57350448,1,0,2
2,363,static conscious control,f42887_e_010,NA,10,2,0.483540176,1,0,2
2,364,static conscious control,f42887_e_261,NA,9,1,0.563692188,1,0,2
2,365,static conscious control,f42887_e_043,NA,9,1,0.573614891,1,0,2
2,366,static conscious control,f42887_e_153,NA,9,1,0.563164392,1,0,2
2,367,static conscious control,f42887_e_030,NA,9,1,0.613581264,1,0,2
2,368,static conscious control,f42887_e_054,NA,9,1,0.513517599,1,0,2
2,369,static conscious control,f42887_e_063,NA,9,1,0.443532126,1,0,2
2,370,static conscious control,f42887_e_185,NA,9,1,0.51314189,1,0,2
2,371,static conscious control,f42887_e_277,NA,10,2,0.523515568,1,0,2
2,372,static conscious control,f42887_e_062,NA,10,2,0.813451694,1,0,2
2,373,static conscious control,f42887_e_042,NA,10,2,0.583427805,1,0,2
2,374,static conscious control,f42887_e_226,NA,10,2,0.513605928,1,0,2
2,375,static conscious control,f42887_e_120,NA,9,1,0.673524914,1,0,2
2,376,static conscious control,f42887_e_262,NA,9,1,0.50349537,1,0,2
2,377,static conscious control,f42887_e_052,NA,10,2,0.483495389,1,0,2
2,378,static conscious control,f42887_e_237,NA,9,1,0.483583096,1,0,2
2,379,static conscious control,f42887_e_056,NA,9,1,0.443501958,1,0,2
2,380,static conscious control,f42887_e_124,NA,10,2,0.393542592,1,0,2
2,381,static conscious control,f42887_e_026,NA,10,2,0.50358992,1,0,2
2,382,static conscious control,f42887_e_015,NA,9,1,0.403415221,1,0,2
2,383,static conscious control,f42887_e_095,NA,10,2,0.35363749,1,0,2
2,384,static conscious control,f42887_e_290,NA,10,2,0.463443468,1,0,2
2,385,static conscious control,f42887_e_088,NA,10,2,0.473531943,1,0,2
2,386,static conscious control,f42887_e_060,NA,10,2,0.49378136,1,0,2
2,387,static conscious control,f42887_e_296,NA,9,1,0.443434467,1,0,2
2,388,static conscious control,f42887_e_033,NA,9,1,0.473517014,1,0,2
2,389,static conscious control,f42887_e_038,NA,9,1,0.523440613,1,0,2
2,390,static conscious control,f42887_e_268,NA,10,2,0.533544017,1,0,2
2,391,static conscious control,f42887_e_066,NA,10,2,0.403767604,1,0,2
2,392,static conscious control,f42887_e_086,NA,10,2,0.403648173,1,0,2
2,393,static conscious control,f42887_e_121,NA,9,1,0.433503989,1,0,2
2,394,static conscious control,f42887_e_183,NA,10,2,0.433591696,1,0,2
2,395,static conscious control,f42887_e_252,NA,9,1,0.433460446,1,0,2
2,396,static conscious control,f42887_e_133,NA,9,1,0.513563318,1,0,2
2,397,static conscious control,f42887_e_047,NA,10,2,0.393701522,1,0,2
2,398,static conscious control,f42887_e_100,NA,10,2,0.553637614,1,0,2
2,399,static conscious control,f42887_e_289,NA,10,2,0.45346727,1,0,2
2,400,static conscious control,f42887_e_169,NA,10,2,0.443753571,1,0,2
2,401,static conscious control,f42887_e_235,NA,9,1,0.572188254,1,0,2
2,402,static conscious control,f42887_e_092,NA,9,1,0.433707083,1,0,2
2,403,static conscious control,f42887_e_247,NA,10,2,0.433484084,1,0,2
2,404,static conscious control,f42887_e_241,NA,10,2,0.50374605,1,0,2
2,405,static conscious control,f42887_e_212,NA,9,1,0.433570857,1,0,2
2,406,static conscious control,f42887_e_078,NA,9,1,0.483493523,1,0,2
2,407,static conscious control,f42887_e_152,NA,9,1,0.513631742,1,0,2
2,408,static conscious control,f42887_e_187,NA,9,1,0.443602727,1,0,2
2,409,static conscious control,f42887_e_055,NA,10,2,0.483641256,1,0,2
2,410,static conscious control,f42887_e_090,NA,10,2,0.453563374,1,0,2
2,411,static conscious control,f42887_e_266,NA,9,1,0.423683922,1,0,2
2,412,static conscious control,f42887_e_260,NA,10,2,0.403537762,1,0,2
2,413,static conscious control,f42887_e_256,NA,9,1,0.363727209,1,0,2
2,414,static conscious control,f42887_e_118,NA,10,2,0.333624757,1,0,2
2,415,static conscious control,f42887_e_093,NA,9,1,0.263475378,1,0,2
2,416,static conscious control,f42887_e_143,NA,9,1,0.423558893,1,0,2
2,417,static conscious control,f42887_e_112,NA,10,2,0.413464197,1,0,2
2,418,static conscious control,f42887_e_224,NA,10,2,0.453779532,1,0,2
2,419,static conscious control,f42887_e_220,NA,9,1,0.373425046,1,0,2
2,420,static conscious control,f42887_e_057,NA,10,2,0.26367474,1,0,2
2,421,static conscious control,f42887_e_073,NA,9,1,0.293589649,1,0,2
2,422,static conscious control,f42887_e_022,NA,9,2,0.284098017,0,0,2
2,423,static conscious control,f42887_e_074,NA,10,2,0.343463485,1,0,2
2,424,static conscious control,f42887_e_188,NA,10,2,0.443536481,1,0,2
2,425,static conscious control,f42887_e_028,NA,10,2,0.533555524,1,0,2
2,426,static conscious control,f42887_e_084,NA,10,2,0.353566267,1,0,2
2,427,static conscious control,f42887_e_194,NA,9,1,0.403599344,1,0,2
2,428,static conscious control,f42887_e_008,NA,10,2,0.353556936,1,0,2
2,429,static conscious control,f42887_e_288,NA,9,1,0.513558653,1,0,2
2,430,static conscious control,f42887_e_102,NA,9,1,0.433479107,1,0,2
2,431,static conscious control,f42887_e_134,NA,10,2,0.373550075,1,0,2
2,432,static conscious control,f42887_e_285,NA,10,2,0.333628489,1,0,2
2,433,static conscious control,f42887_e_211,NA,10,2,0.493473764,1,0,2
2,434,static conscious control,f42887_e_275,NA,10,2,0.343472193,1,0,2
2,435,static conscious control,f42887_e_279,NA,9,1,0.463666156,1,0,2
2,436,static conscious control,f42887_e_041,NA,10,2,0.263453607,1,0,2
2,437,static conscious control,f42887_e_014,NA,10,2,0.353488823,1,0,2
2,438,static conscious control,f42887_e_192,NA,9,1,0.443595885,1,0,2
2,439,static conscious control,f42887_e_061,NA,9,1,0.39358458,1,0,2
2,440,static conscious control,f42887_e_006,NA,9,1,0.563562183,1,0,2
2,441,static conscious control,f42887_e_244,NA,9,1,0.553455669,1,0,2
2,442,static conscious control,f42887_e_269,NA,9,1,0.483492901,1,0,2
2,443,static conscious control,f42887_e_217,NA,9,1,0.433480662,1,0,2
2,444,static conscious control,f42887_e_058,NA,10,2,0.393528907,1,0,2
2,445,static conscious control,f42887_e_117,NA,10,2,0.473730683,1,0,2
2,446,static conscious control,f42887_e_207,NA,10,2,0.473435527,1,0,2
2,447,static conscious control,f42887_e_166,NA,10,2,0.473489645,1,0,2
2,448,static conscious control,f42887_e_113,NA,10,2,0.503580278,1,0,2
2,449,static conscious control,f42887_e_158,NA,10,2,0.483848705,1,0,2
2,450,static conscious control,f42887_e_018,NA,10,2,0.403526565,1,0,2
2,451,static conscious control,f42887_e_064,NA,10,2,0.403406513,1,0,2
2,452,static conscious control,f42887_e_215,NA,9,1,0.523570929,1,0,2
2,453,static conscious control,f42887_e_049,NA,10,2,0.373505289,1,0,2
2,454,static conscious control,f42887_e_292,NA,10,2,0.34366067,1,0,2
2,455,static conscious control,f42887_e_213,NA,10,2,0.343643253,1,0,2
2,456,static conscious control,f42887_e_098,NA,10,2,0.383574481,1,0,2
2,457,static conscious control,f42887_e_127,NA,9,1,0.613608945,1,0,2
2,458,static conscious control,f42887_e_070,NA,9,1,0.47338141,1,0,2
2,459,static conscious control,f42887_e_011,NA,10,2,0.433471954,1,0,2
2,460,static conscious control,f42887_e_172,NA,9,1,0.573539936,1,0,2
2,461,static conscious control,f42887_e_168,NA,9,1,0.493430222,1,0,2
2,462,static conscious control,f42887_e_214,NA,9,1,0.573546156,1,0,2
2,463,static conscious control,f42887_e_227,NA,10,2,0.483573765,1,0,2
2,464,static conscious control,f42887_e_201,NA,9,1,0.463491053,1,0,2
2,465,static conscious control,f42887_e_255,NA,10,2,0.403436059,1,0,2
2,466,static conscious control,f42887_e_271,NA,10,2,0.463491675,1,0,2
2,467,static conscious control,f42887_e_005,NA,10,2,0.493683701,1,0,2
2,468,static conscious control,f42887_e_250,NA,9,2,0.403594367,0,0,2
2,469,static conscious control,f42887_e_142,NA,9,1,0.473445169,1,0,2
2,470,static conscious control,f42887_e_031,NA,9,1,0.443691678,1,0,2
2,471,static conscious control,f42887_e_229,NA,9,1,0.45340631,1,0,2
2,472,static conscious control,f42887_e_147,NA,10,2,0.393474168,1,0,2
2,473,static conscious control,f42887_e_045,NA,10,2,0.43353509,1,0,2
2,474,static conscious control,f42887_e_135,NA,10,2,0.453588567,1,0,2
2,475,static conscious control,f42887_e_044,NA,10,2,0.403476492,1,0,2
2,476,static conscious control,f42887_e_204,NA,9,1,0.464053373,1,0,2
2,477,static conscious control,f42887_e_126,NA,10,2,0.38345816,1,0,2
2,478,static conscious control,f42887_e_181,NA,10,2,0.443691678,1,0,2
2,479,static conscious control,f42887_e_083,NA,10,2,0.453457317,1,0,2
2,480,static conscious control,f42887_e_069,NA,9,2,0.403565132,0,0,2
2,481,static conscious control,f42887_e_017,NA,9,1,0.593675832,1,0,2
2,482,static conscious control,f42887_e_175,NA,10,1,0.393551612,0,0,2
2,483,static conscious control,f42887_e_273,NA,9,1,0.553633882,1,0,2
2,484,static conscious control,f42887_e_267,NA,10,2,0.383293943,1,0,2
2,485,static conscious control,f42887_e_154,NA,9,1,0.443490139,1,0,2
2,486,static conscious control,f42887_e_208,NA,10,2,0.493525082,1,0,2
2,487,static conscious control,f42887_e_091,NA,9,1,0.393595154,1,0,2
2,488,static conscious control,f42887_e_298,NA,10,2,0.383586299,1,0,2
2,489,static conscious control,f42887_e_164,NA,9,1,0.433379271,1,0,2
2,490,static conscious control,f42887_e_272,NA,10,2,0.333449654,1,0,2
2,491,static conscious control,f42887_e_171,NA,9,1,0.463520911,1,0,2
2,492,static conscious control,f42887_e_068,NA,10,2,0.323497715,1,0,2
2,493,static conscious control,f42887_e_161,NA,10,2,0.473478137,1,0,2
2,494,static conscious control,f42887_e_131,NA,10,2,0.543632803,1,0,2
2,495,static conscious control,f42887_e_233,NA,9,1,0.523451187,1,0,2
2,496,static conscious control,f42887_e_257,NA,10,2,0.433533224,1,0,2
2,497,static conscious control,f42887_e_222,NA,10,2,0.483423544,1,0,2
2,498,static conscious control,f42887_e_297,NA,10,2,0.543545718,1,0,2
2,499,static conscious control,f42887_e_132,NA,9,1,0.423515661,1,0,2
2,500,static conscious control,f42887_e_210,NA,10,2,0.38350699,1,0,2
2,501,static conscious control,f42887_e_077,NA,10,2,0.697604512,1,0,2
2,502,static conscious control,f42887_e_123,NA,9,1,0.48346211,1,0,2
2,503,static conscious control,f42887_e_276,NA,9,1,0.443411763,1,0,2
2,504,static conscious control,f42887_e_009,NA,9,1,0.433557173,1,0,2
2,505,static conscious control,f42887_e_125,NA,10,1,0.383552088,0,0,2
2,506,static conscious control,f42887_e_291,NA,10,2,0.433575212,1,0,2
2,507,static conscious control,f42887_e_184,NA,10,2,0.393526419,1,0,2
2,508,static conscious control,f42887_e_067,NA,10,2,0.403594367,1,0,2
2,509,static conscious control,f42887_e_253,NA,9,1,0.533498919,1,0,2
2,510,static conscious control,f42887_e_116,NA,9,1,0.503545444,1,0,2
2,511,static conscious control,f42887_e_002,NA,9,1,0.553648189,1,0,2
2,512,static conscious control,f42887_e_221,NA,9,1,0.773506471,1,0,2
2,513,static conscious control,f42887_e_024,NA,9,1,0.503461158,1,0,2
2,514,static conscious control,f42887_e_138,NA,9,1,0.493652288,1,0,2
2,515,static conscious control,f42887_e_198,NA,10,2,0.413538219,1,0,2
2,516,static conscious control,f42887_e_151,NA,10,2,0.363638258,1,0,2
2,517,static conscious control,f42887_e_149,NA,9,1,0.463357316,1,0,2
2,518,static conscious control,f42887_e_137,NA,10,2,0.363535622,1,0,2
2,519,static conscious control,f42887_e_071,NA,9,1,0.483509074,1,0,2
2,520,static conscious control,f42887_e_007,NA,10,2,0.353572176,1,0,2
2,521,static conscious control,f42887_e_050,NA,10,2,0.433437742,1,0,2
2,522,static conscious control,f42887_e_264,NA,10,2,0.453501793,1,0,2
2,523,static conscious control,f42887_e_160,NA,10,2,0.473482491,1,0,2
2,524,static conscious control,f42887_e_299,NA,10,2,0.453643617,1,0,2
2,525,static conscious control,f42887_e_186,NA,9,1,0.483647166,1,0,2
2,526,static conscious control,f42887_e_075,NA,10,2,0.383480864,1,0,2
2,527,static conscious control,f42887_e_225,NA,9,1,0.473632091,1,0,2
2,528,static conscious control,f42887_e_190,NA,10,2,0.393490963,1,0,2
2,529,static conscious control,f42887_e_048,NA,9,1,0.453665699,1,0,2
2,530,static conscious control,f42887_e_157,NA,9,2,0.313528982,0,0,2
2,531,static conscious control,f42887_e_280,NA,9,1,0.503232561,1,0,2
2,532,static conscious control,f42887_e_034,NA,10,2,0.42357942,1,0,2
2,533,static conscious control,f42887_e_035,NA,10,2,0.563626564,1,0,2
2,534,static conscious control,f42887_e_176,NA,9,1,0.473593835,1,0,2
2,535,static conscious control,f42887_e_203,NA,9,2,0.353518059,0,0,2
2,536,static conscious control,f42887_e_080,NA,9,1,0.533509183,1,0,2
2,537,static conscious control,f42887_e_293,NA,9,1,0.503425391,1,0,2
2,538,static conscious control,f42887_e_182,NA,10,2,0.413427186,1,0,2
2,539,static conscious control,f42887_e_115,NA,10,2,0.523677608,1,0,2
2,540,static conscious control,f42887_e_089,NA,9,1,0.503622888,1,0,2
2,541,static conscious control,f42887_e_191,NA,10,2,0.42356107,1,0,2
2,542,static conscious control,f42887_e_236,NA,9,1,0.523439991,1,0,2
2,543,static conscious control,f42887_e_097,NA,9,1,0.603505852,1,0,2
2,544,static conscious control,f42887_e_094,NA,9,1,0.463662735,1,0,2
2,545,static conscious control,f42887_e_141,NA,9,1,0.543670125,1,0,2
2,546,static conscious control,f42887_e_032,NA,9,1,0.453475356,1,0,2
2,547,static conscious control,f42887_e_246,NA,9,1,0.463468349,1,0,2
2,548,static conscious control,f42887_e_177,NA,10,1,0.433456403,0,0,2
2,549,static conscious control,f42887_e_270,NA,9,1,0.853488357,1,0,2
2,550,static conscious control,f42887_e_130,NA,10,2,0.403698558,1,0,2
2,551,static conscious control,f42887_e_173,NA,10,2,0.443510977,1,0,2
2,552,static conscious control,f42887_e_107,NA,10,2,0.514018337,1,0,2
2,553,static conscious control,f42887_e_216,NA,9,1,0.433632439,1,0,2
2,554,static conscious control,f42887_e_016,NA,10,2,0.343411856,1,0,2
2,555,static conscious control,f42887_e_082,NA,10,2,0.553567946,1,0,2
2,556,static conscious control,f42887_e_278,NA,9,1,0.523503438,1,0,2
2,557,static conscious control,f42887_e_146,NA,10,2,0.413567455,1,0,2
2,558,static conscious control,f42887_e_163,NA,10,2,0.523541382,1,0,2
2,559,static conscious control,f42887_e_114,NA,9,1,0.343601577,1,0,2
2,560,static conscious control,f42887_e_219,NA,10,2,0.373521151,1,0,2
2,561,static conscious control,f42887_e_178,NA,10,2,0.583602286,1,0,2
2,562,static conscious control,f42887_e_189,NA,10,2,0.563608836,1,0,2
2,563,static conscious control,f42887_e_106,NA,9,1,0.473721664,1,0,2
2,564,static conscious control,f42887_e_027,NA,10,2,0.443509733,1,0,2
2,565,static conscious control,f42887_e_051,NA,9,1,0.49353068,1,0,2
2,566,static conscious control,f42887_e_109,NA,9,1,0.513436112,1,0,2
2,567,static conscious control,f42887_e_223,NA,9,1,0.443633829,1,0,2
2,568,static conscious control,f42887_e_193,NA,9,1,0.453671297,1,0,2
2,569,static conscious control,f42887_e_111,NA,9,1,0.463621992,1,0,2
2,570,static conscious control,f42887_e_087,NA,9,1,0.54351897,1,0,2
2,571,static conscious control,f42887_e_013,NA,9,1,0.713716463,1,0,2
2,572,static conscious control,f42887_e_228,NA,9,1,0.423468697,1,0,2
2,573,static conscious control,f42887_e_199,NA,10,2,0.483561636,1,0,2
2,574,static conscious control,f42887_e_202,NA,10,2,0.533506072,1,0,2
2,575,static conscious control,f42887_e_232,NA,9,1,0.593693249,1,0,2
2,576,static conscious control,f42887_e_195,NA,10,2,0.41367911,1,0,2
2,577,static conscious control,f42887_e_162,NA,10,2,0.513386349,1,0,2
2,578,static conscious control,f42887_e_037,NA,10,2,0.523547292,1,0,2
2,579,static conscious control,f42887_e_287,NA,9,1,0.543662349,1,0,2
2,580,static conscious control,f42887_e_197,NA,9,1,0.493608124,1,0,2
2,581,static conscious control,f42887_e_053,NA,10,2,0.493591329,1,0,2
2,582,static conscious control,f42887_e_104,NA,9,1,0.513479033,1,0,2
2,583,static conscious control,f42887_e_239,NA,10,2,0.423470253,1,0,2
2,584,static conscious control,f42887_e_122,NA,10,2,0.483613265,1,0,2
2,585,static conscious control,f42887_e_119,NA,10,2,0.523523654,1,0,2
2,586,static conscious control,f42887_e_004,NA,10,2,0.453683116,1,0,2
2,587,static conscious control,f42887_e_180,NA,9,1,0.433674115,1,0,2
2,588,static conscious control,f42887_e_144,NA,9,1,0.513491784,1,0,2
2,589,static conscious control,f42887_e_079,NA,9,1,0.583474147,1,0,2
2,590,static conscious control,f42887_e_295,NA,10,2,0.403364214,1,0,2
2,591,static conscious control,f42887_e_012,NA,9,2,0.433562149,0,0,2
2,592,static conscious control,f42887_e_148,NA,9,1,0.543496577,1,0,2
2,593,static conscious control,f42887_e_021,NA,10,2,0.443458104,1,0,2
2,594,static conscious control,f42887_e_248,NA,10,2,0.403553313,1,0,2
2,595,static conscious control,f42887_e_281,NA,10,2,0.423413647,1,0,2
2,596,static conscious control,f42887_e_003,NA,10,2,0.513798759,1,0,2
2,597,static conscious control,f42887_e_234,NA,9,1,0.44322142,1,0,2
2,598,static conscious control,f42887_e_023,NA,10,2,0.463488254,1,0,2
2,599,static conscious control,f42887_e_245,NA,9,1,0.533582272,1,0,2
2,600,static conscious control,f42887_e_025,NA,9,1,0.52330532,1,0,2
3,1,static conscious control,f42887_e_067,NA,9,1,0.508677878,1,0,1
3,2,static conscious control,f42887_e_110,NA,9,1,0.403775135,1,0,1
3,3,static conscious control,f42887_e_115,NA,9,1,0.443674031,1,0,1
3,4,static conscious control,f42887_e_151,NA,10,2,0.453725342,1,0,1
3,5,static conscious control,f42887_e_081,NA,10,2,0.523642569,1,0,1
3,6,static conscious control,f42887_e_208,NA,10,2,0.443617427,1,0,1
3,7,static conscious control,f42887_e_232,NA,9,1,0.373653237,1,0,1
3,8,static conscious control,f42887_e_291,NA,10,2,0.383612799,1,0,1
3,9,static conscious control,f42887_e_117,NA,9,1,0.623796458,1,0,1
3,10,static conscious control,f42887_e_273,NA,10,2,0.473626428,1,0,1
3,11,static conscious control,f42887_e_257,NA,9,1,0.393728179,1,0,1
3,12,static conscious control,f42887_e_048,NA,10,2,0.413970445,1,0,1
3,13,static conscious control,f42887_e_270,NA,10,2,0.503692033,1,0,1
3,14,static conscious control,f42887_e_176,NA,10,2,0.593839397,1,0,1
3,15,static conscious control,f42887_e_202,NA,10,2,0.413497395,1,0,1
3,16,static conscious control,f42887_e_265,NA,10,2,0.403601279,1,0,1
3,17,static conscious control,f42887_e_015,NA,9,1,0.703510588,1,0,1
3,18,static conscious control,f42887_e_028,NA,10,2,0.443665323,1,0,1
3,19,static conscious control,f42887_e_167,NA,10,2,0.433609347,1,0,1
3,20,static conscious control,f42887_e_054,NA,10,2,0.38375742,1,0,1
3,21,static conscious control,f42887_e_114,NA,10,2,0.453489905,1,0,1
3,22,static conscious control,f42887_e_014,NA,10,2,0.423831416,1,0,1
3,23,static conscious control,f42887_e_055,NA,10,2,0.403750876,1,0,1
3,24,static conscious control,f42887_e_280,NA,10,2,0.393730978,1,0,1
3,25,static conscious control,f42887_e_244,NA,10,2,0.413583545,1,0,1
3,26,static conscious control,f42887_e_083,NA,9,1,0.493573543,1,0,1
3,27,static conscious control,f42887_e_043,NA,9,1,0.633594605,1,0,1
3,28,static conscious control,f42887_e_199,NA,10,2,0.403523526,1,0,1
3,29,static conscious control,f42887_e_236,NA,9,1,0.503604016,1,0,1
3,30,static conscious control,f42887_e_120,NA,10,2,0.41375709,1,0,1
3,31,static conscious control,f42887_e_288,NA,9,1,0.483884251,1,0,1
3,32,static conscious control,f42887_e_298,NA,10,2,0.433734685,1,0,1
3,33,static conscious control,f42887_e_079,NA,10,2,0.483624244,1,0,1
3,34,static conscious control,f42887_e_222,NA,9,1,0.513735568,1,0,1
3,35,static conscious control,f42887_e_143,NA,10,2,0.433782892,1,0,1
3,36,static conscious control,f42887_e_290,NA,10,2,0.683817259,1,0,1
3,37,static conscious control,f42887_e_092,NA,9,1,0.403966719,1,0,1
3,38,static conscious control,f42887_e_190,NA,10,2,0.42355928,1,0,1
3,39,static conscious control,f42887_e_243,NA,10,2,0.693643085,1,0,1
3,40,static conscious control,f42887_e_182,NA,9,2,0.463728446,0,0,1
3,41,static conscious control,f42887_e_019,NA,9,1,0.533698234,1,0,1
3,42,static conscious control,f42887_e_180,NA,10,2,0.443616805,1,0,1
3,43,static conscious control,f42887_e_188,NA,10,2,0.58383536,1,0,1
3,44,static conscious control,f42887_e_122,NA,10,2,0.463564231,1,0,1
3,45,static conscious control,f42887_e_072,NA,9,1,0.423609042,1,0,1
3,46,static conscious control,f42887_e_123,NA,10,2,0.483874921,1,0,1
3,47,static conscious control,f42887_e_075,NA,9,1,0.483869322,1,0,1
3,48,static conscious control,f42887_e_136,NA,10,2,0.50373122,1,0,1
3,49,static conscious control,f42887_e_035,NA,9,1,0.483860925,1,0,1
3,50,static conscious control,f42887_e_071,NA,10,2,0.34367596,1,0,1
3,51,static conscious control,f42887_e_168,NA,9,1,0.483547113,1,0,1
3,52,static conscious control,f42887_e_237,NA,9,2,0.343717324,0,0,1
3,53,static conscious control,f42887_e_128,NA,10,2,0.583710644,1,0,1
3,54,static conscious control,f42887_e_156,NA,10,2,0.53365687,1,0,1
3,55,static conscious control,f42887_e_051,NA,10,2,0.443700156,1,0,1
3,56,static conscious control,f42887_e_224,NA,10,2,0.473748967,1,0,1
3,57,static conscious control,f42887_e_011,NA,9,1,0.423544973,1,0,1
3,58,static conscious control,f42887_e_066,NA,9,1,0.673933895,1,0,1
3,59,static conscious control,f42887_e_045,NA,10,2,0.473729062,1,0,1
3,60,static conscious control,f42887_e_093,NA,10,2,0.423865939,1,0,1
3,61,static conscious control,f42887_e_278,NA,10,2,0.463808376,1,0,1
3,62,static conscious control,f42887_e_223,NA,9,1,0.523706016,1,0,1
3,63,static conscious control,f42887_e_147,NA,9,1,0.463525666,1,0,1
3,64,static conscious control,f42887_e_155,NA,10,2,0.483699198,1,0,1
3,65,static conscious control,f42887_e_031,NA,9,1,0.413795967,1,0,1
3,66,static conscious control,f42887_e_220,NA,10,2,0.44381492,1,0,1
3,67,static conscious control,f42887_e_289,NA,9,1,0.363811549,1,0,1
3,68,static conscious control,f42887_e_150,NA,9,1,0.473674946,1,0,1
3,69,static conscious control,f42887_e_177,NA,10,2,0.673530511,1,0,1
3,70,static conscious control,f42887_e_189,NA,10,2,0.473671213,1,0,1
3,71,static conscious control,f42887_e_247,NA,10,1,0.56356759,0,0,1
3,72,static conscious control,f42887_e_251,NA,10,2,0.538250217,1,0,1
3,73,static conscious control,f42887_e_198,NA,9,1,0.462464801,1,0,1
3,74,static conscious control,f42887_e_165,NA,10,2,0.403612787,1,0,1
3,75,static conscious control,f42887_e_009,NA,10,2,0.423524758,1,0,1
3,76,static conscious control,f42887_e_046,NA,10,2,0.473563914,1,0,1
3,77,static conscious control,f42887_e_026,NA,10,2,0.493810846,1,0,1
3,78,static conscious control,f42887_e_241,NA,10,2,0.443637643,1,0,1
3,79,static conscious control,f42887_e_006,NA,10,2,0.423652895,1,0,1
3,80,static conscious control,f42887_e_119,NA,10,2,0.533616127,1,0,1
3,81,static conscious control,f42887_e_209,NA,9,1,0.693708709,1,0,1
3,82,static conscious control,f42887_e_170,NA,10,2,0.533774121,1,0,1
3,83,static conscious control,f42887_e_013,NA,9,1,0.563582208,1,0,1
3,84,static conscious control,f42887_e_142,NA,9,1,0.66370935,1,0,1
3,85,static conscious control,f42887_e_121,NA,10,2,0.493678665,1,0,1
3,86,static conscious control,f42887_e_205,NA,9,1,0.523617999,1,0,1
3,87,static conscious control,f42887_e_255,NA,10,2,0.473658773,1,0,1
3,88,static conscious control,f42887_e_021,NA,9,1,0.403620873,1,0,1
3,89,static conscious control,f42887_e_088,NA,10,2,0.51371162,1,0,1
3,90,static conscious control,f42887_e_299,NA,9,1,0.433702962,1,0,1
3,91,static conscious control,f42887_e_271,NA,10,2,0.463707919,1,0,1
3,92,static conscious control,f42887_e_166,NA,9,1,0.433551187,1,0,1
3,93,static conscious control,f42887_e_112,NA,9,1,0.553762912,1,0,1
3,94,static conscious control,f42887_e_042,NA,9,1,0.443608097,1,0,1
3,95,static conscious control,f42887_e_245,NA,9,1,0.633782146,1,0,1
3,96,static conscious control,f42887_e_094,NA,9,1,0.583645642,1,0,1
3,97,static conscious control,f42887_e_101,NA,9,1,0.563545197,1,0,1
3,98,static conscious control,f42887_e_116,NA,10,2,0.573749526,1,0,1
3,99,static conscious control,f42887_e_242,NA,10,2,0.52363355,1,0,1
3,100,static conscious control,f42887_e_131,NA,10,2,0.513538075,1,0,1
3,101,static conscious control,f42887_e_263,NA,9,1,0.492738785,1,0,1
3,102,static conscious control,f42887_e_016,NA,10,2,0.393608439,1,0,1
3,103,static conscious control,f42887_e_080,NA,10,2,0.443703577,1,0,1
3,104,static conscious control,f42887_e_140,NA,9,1,0.473760474,1,0,1
3,105,static conscious control,f42887_e_158,NA,9,1,0.523906308,1,0,1
3,106,static conscious control,f42887_e_077,NA,10,2,0.443793771,1,0,1
3,107,static conscious control,f42887_e_060,NA,10,2,0.503703851,1,0,1
3,108,static conscious control,f42887_e_047,NA,10,2,0.44376889,1,0,1
3,109,static conscious control,f42887_e_017,NA,9,1,0.663616979,1,0,1
3,110,static conscious control,f42887_e_161,NA,10,2,0.413650724,1,0,1
3,111,static conscious control,f42887_e_020,NA,10,2,0.533559523,1,0,1
3,112,static conscious control,f42887_e_235,NA,10,2,0.463734355,1,0,1
3,113,static conscious control,f42887_e_090,NA,10,2,0.493843502,1,0,1
3,114,static conscious control,f42887_e_149,NA,9,1,0.57375046,1,0,1
3,115,static conscious control,f42887_e_004,NA,10,2,0.403622117,1,0,1
3,116,static conscious control,f42887_e_284,NA,10,2,0.463626123,1,0,1
3,117,static conscious control,f42887_e_100,NA,10,2,0.603723694,1,0,1
3,118,static conscious control,f42887_e_231,NA,9,1,0.75366824,1,0,1
3,119,static conscious control,f42887_e_084,NA,9,1,0.643636274,1,0,1
3,120,static conscious control,f42887_e_152,NA,9,1,0.643676084,1,0,1
3,121,static conscious control,f42887_e_044,NA,9,1,0.443728147,1,0,1
3,122,static conscious control,f42887_e_258,NA,10,2,0.48379499,1,0,1
3,123,static conscious control,f42887_e_253,NA,9,1,0.563726829,1,0,1
3,124,static conscious control,f42887_e_238,NA,10,2,0.443861572,1,0,1
3,125,static conscious control,f42887_e_266,NA,9,1,0.523835708,1,0,1
3,126,static conscious control,f42887_e_061,NA,9,1,0.493721274,1,0,1
3,127,static conscious control,f42887_e_113,NA,9,1,0.423698925,1,0,1
3,128,static conscious control,f42887_e_111,NA,10,2,0.523655321,1,0,1
3,129,static conscious control,f42887_e_098,NA,10,2,0.493704168,1,0,1
3,130,static conscious control,f42887_e_144,NA,9,1,0.433630496,1,0,1
3,131,static conscious control,f42887_e_091,NA,9,1,0.453615244,1,0,1
3,132,static conscious control,f42887_e_279,NA,9,1,0.443560512,1,0,1
3,133,static conscious control,f42887_e_056,NA,9,1,0.383717921,1,0,1
3,134,static conscious control,f42887_e_036,NA,10,2,0.633598337,1,0,1
3,135,static conscious control,f42887_e_268,NA,9,1,0.453653809,1,0,1
3,136,static conscious control,f42887_e_294,NA,10,2,0.54366495,1,0,1
3,137,static conscious control,f42887_e_197,NA,9,1,0.47396481,1,0,1
3,138,static conscious control,f42887_e_001,NA,9,1,0.453777281,1,0,1
3,139,static conscious control,f42887_e_034,NA,10,2,0.58356509,1,0,1
3,140,static conscious control,f42887_e_087,NA,9,1,0.483617713,1,0,1
3,141,static conscious control,f42887_e_160,NA,10,2,0.483744606,1,0,1
3,142,static conscious control,f42887_e_185,NA,10,2,0.793773338,1,0,1
3,143,static conscious control,f42887_e_171,NA,9,1,0.413743717,1,0,1
3,144,static conscious control,f42887_e_172,NA,9,1,0.813589828,1,0,1
3,145,static conscious control,f42887_e_141,NA,9,1,0.523606181,1,0,1
3,146,static conscious control,f42887_e_297,NA,9,1,0.47373466,1,0,1
3,147,static conscious control,f42887_e_240,NA,10,2,0.453679312,1,0,1
3,148,static conscious control,f42887_e_228,NA,10,2,0.573708473,1,0,1
3,149,static conscious control,f42887_e_296,NA,9,1,0.423860029,1,0,1
3,150,static conscious control,f42887_e_218,NA,10,2,0.433613701,1,0,1
3,151,static conscious control,f42887_e_018,NA,10,2,0.533630433,1,0,1
3,152,static conscious control,f42887_e_099,NA,10,2,0.533638831,1,0,1
3,153,static conscious control,f42887_e_133,NA,9,1,0.423644186,1,0,1
3,154,static conscious control,f42887_e_246,NA,10,2,0.493649119,1,0,1
3,155,static conscious control,f42887_e_269,NA,10,2,0.453640747,1,0,1
3,156,static conscious control,f42887_e_192,NA,10,2,0.463549303,1,0,1
3,157,static conscious control,f42887_e_201,NA,9,2,0.833969873,0,0,1
3,158,static conscious control,f42887_e_277,NA,9,1,0.503706028,1,0,1
3,159,static conscious control,f42887_e_137,NA,10,2,0.723814746,1,0,1
3,160,static conscious control,f42887_e_062,NA,10,2,0.503688923,1,0,1
3,161,static conscious control,f42887_e_274,NA,10,2,0.483550223,1,0,1
3,162,static conscious control,f42887_e_038,NA,9,1,0.473918469,1,0,1
3,163,static conscious control,f42887_e_282,NA,9,1,0.533556101,1,0,1
3,164,static conscious control,f42887_e_260,NA,9,1,0.693727992,1,0,1
3,165,static conscious control,f42887_e_052,NA,9,1,0.633631615,1,0,1
3,166,static conscious control,f42887_e_109,NA,9,1,0.473542765,1,0,1
3,167,static conscious control,f42887_e_040,NA,9,1,0.743783943,1,0,1
3,168,static conscious control,f42887_e_292,NA,9,1,0.413635484,1,0,1
3,169,static conscious control,f42887_e_261,NA,10,2,0.483663432,1,0,1
3,170,static conscious control,f42887_e_213,NA,9,1,0.493701991,1,0,1
3,171,static conscious control,f42887_e_132,NA,9,1,0.443609652,1,0,1
3,172,static conscious control,f42887_e_107,NA,9,1,0.40357391,1,0,1
3,173,static conscious control,f42887_e_181,NA,10,2,0.523746758,1,0,1
3,174,static conscious control,f42887_e_219,NA,10,2,0.483618024,1,0,1
3,175,static conscious control,f42887_e_104,NA,9,1,0.483900113,1,0,1
3,176,static conscious control,f42887_e_173,NA,10,2,0.493823597,1,0,1
3,177,static conscious control,f42887_e_041,NA,9,1,0.493625171,1,0,1
3,178,static conscious control,f42887_e_287,NA,10,2,0.52367367,1,0,1
3,179,static conscious control,f42887_e_010,NA,9,1,0.363755566,1,0,1
3,180,static conscious control,f42887_e_221,NA,9,1,0.583918711,1,0,1
3,181,static conscious control,f42887_e_283,NA,10,2,0.5136687,1,0,1
3,182,static conscious control,f42887_e_227,NA,10,2,0.523731208,1,0,1
3,183,static conscious control,f42887_e_200,NA,10,2,0.703930144,1,0,1
3,184,static conscious control,f42887_e_226,NA,10,2,0.543673658,1,0,1
3,185,static conscious control,f42887_e_138,NA,9,1,0.443586326,1,0,1
3,186,static conscious control,f42887_e_249,NA,9,1,0.423979147,1,0,1
3,187,static conscious control,f42887_e_074,NA,10,2,0.523746758,1,0,1
3,188,static conscious control,f42887_e_217,NA,9,1,0.543624207,1,0,1
3,189,static conscious control,f42887_e_286,NA,10,2,0.573754814,1,0,1
3,190,static conscious control,f42887_e_229,NA,9,1,0.543658107,1,0,1
3,191,static conscious control,f42887_e_086,NA,10,2,0.473573866,1,0,1
3,192,static conscious control,f42887_e_193,NA,9,1,0.543568536,1,0,1
3,193,static conscious control,f42887_e_005,NA,10,2,0.623674852,1,0,1
3,194,static conscious control,f42887_e_178,NA,9,1,0.643579359,1,0,1
3,195,static conscious control,f42887_e_095,NA,9,1,0.473780379,1,0,1
3,196,static conscious control,f42887_e_276,NA,10,2,0.49345909,1,0,1
3,197,static conscious control,f42887_e_162,NA,9,1,0.493621128,1,0,1
3,198,static conscious control,f42887_e_295,NA,9,1,0.443912267,1,0,1
3,199,static conscious control,f42887_e_234,NA,10,2,0.673678553,1,0,1
3,200,static conscious control,f42887_e_073,NA,10,2,0.54359435,1,0,1
3,201,static conscious control,f42887_e_030,NA,10,2,0.653137715,1,0,1
3,202,static conscious control,f42887_e_065,NA,9,1,0.593995836,1,0,1
3,203,static conscious control,f42887_e_254,NA,10,2,0.483658767,1,0,1
3,204,static conscious control,f42887_e_259,NA,9,1,0.503711937,1,0,1
3,205,static conscious control,f42887_e_064,NA,9,1,0.893766122,1,0,1
3,206,static conscious control,f42887_e_225,NA,9,1,0.543931177,1,0,1
3,207,static conscious control,f42887_e_129,NA,9,1,0.453844771,1,0,1
3,208,static conscious control,f42887_e_163,NA,9,1,0.488315561,1,0,1
3,209,static conscious control,f42887_e_179,NA,10,2,0.593626975,1,0,1
3,210,static conscious control,f42887_e_033,NA,9,1,0.533624524,1,0,1
3,211,static conscious control,f42887_e_027,NA,10,2,0.543805216,1,0,1
3,212,static conscious control,f42887_e_039,NA,9,1,0.483878342,1,0,1
3,213,static conscious control,f42887_e_204,NA,9,1,0.473893588,1,0,1
3,214,static conscious control,f42887_e_085,NA,9,1,0.403703913,1,0,1
3,215,static conscious control,f42887_e_148,NA,9,1,0.443772622,1,0,1
3,216,static conscious control,f42887_e_216,NA,9,1,0.423739356,1,0,1
3,217,static conscious control,f42887_e_102,NA,10,2,0.503702296,1,0,1
3,218,static conscious control,f42887_e_049,NA,9,1,0.403782911,1,0,1
3,219,static conscious control,f42887_e_174,NA,10,2,0.563768815,1,0,1
3,220,static conscious control,f42887_e_082,NA,9,1,0.493712877,1,0,1
3,221,static conscious control,f42887_e_032,NA,10,2,0.703640902,1,0,1
3,222,static conscious control,f42887_e_264,NA,10,2,0.87354656,1,0,1
3,223,static conscious control,f42887_e_002,NA,10,2,0.523706327,1,0,1
3,224,static conscious control,f42887_e_108,NA,10,2,0.463593466,1,0,1
3,225,static conscious control,f42887_e_068,NA,10,2,0.483584746,1,0,1
3,226,static conscious control,f42887_e_230,NA,9,1,0.523671182,1,0,1
3,227,static conscious control,f42887_e_057,NA,9,1,0.533754528,1,0,1
3,228,static conscious control,f42887_e_126,NA,10,2,0.693519613,1,0,1
3,229,static conscious control,f42887_e_012,NA,10,2,0.523596228,1,0,1
3,230,static conscious control,f42887_e_037,NA,9,1,0.563525915,1,0,1
3,231,static conscious control,f42887_e_215,NA,9,1,0.463794381,1,0,1
3,232,static conscious control,f42887_e_239,NA,9,1,0.443848509,1,0,1
3,233,static conscious control,f42887_e_096,NA,9,1,0.443713219,1,0,1
3,234,static conscious control,f42887_e_078,NA,9,1,0.393936246,1,0,1
3,235,static conscious control,f42887_e_069,NA,10,2,0.593845306,1,0,1
3,236,static conscious control,f42887_e_184,NA,9,1,0.503669329,1,0,1
3,237,static conscious control,f42887_e_207,NA,9,1,0.583602722,1,0,1
3,238,static conscious control,f42887_e_203,NA,9,1,0.70381227,1,0,1
3,239,static conscious control,f42887_e_194,NA,9,1,0.533880799,1,0,1
3,240,static conscious control,f42887_e_139,NA,10,2,0.543706003,1,0,1
3,241,static conscious control,f42887_e_089,NA,10,2,0.588429641,1,0,1
3,242,static conscious control,f42887_e_211,NA,9,1,1.053600564,1,0,1
3,243,static conscious control,f42887_e_164,NA,9,1,0.403705468,1,0,1
3,244,static conscious control,f42887_e_175,NA,9,1,0.573581269,1,0,1
