Subject,Trial,Type,Stimulus,Eye,Location,Response,RT,Acc,Block
1,1,bCFS,f42887_e_299,0,10,2,1.706613093,1,1
1,2,bCFS,f42887_e_026,0,10,2,2.370872085,1,1
1,3,bCFS,f42887_e_072,1,10,2,2.274149038,1,1
1,4,bCFS,f42887_e_239,0,9,1,1.925611915,1,1
1,5,bCFS,f42887_e_019,1,10,2,1.867844192,1,1
1,6,bCFS,f42887_e_166,1,9,1,1.856929412,1,1
1,7,bCFS,f42887_e_284,0,10,2,2.23447869,1,1
1,8,bCFS,f42887_e_000,1,10,2,2.506034791,1,1
1,9,bCFS,f42887_e_064,0,9,1,1.750879008,1,1
1,10,bCFS,f42887_e_012,0,9,1,1.645062488,1,1
1,11,bCFS,f42887_e_121,1,10,2,1.382522728,1,1
1,12,bCFS,f42887_e_077,1,10,2,1.714449442,1,1
1,13,bCFS,f42887_e_295,1,10,2,3.433594597,1,1
1,14,bCFS,f42887_e_211,1,9,1,2.420907649,1,1
1,15,bCFS,f42887_e_142,0,10,2,2.234122577,1,1
1,16,bCFS,f42887_e_057,1,10,2,1.967237308,1,1
1,17,bCFS,f42887_e_036,1,9,1,1.342318055,1,1
1,18,bCFS,f42887_e_232,0,9,1,1.469570702,1,1
1,19,bCFS,f42887_e_283,1,9,1,2.086303714,1,1
1,20,bCFS,f42887_e_143,0,9,1,2.856285298,1,1
1,21,bCFS,f42887_e_276,0,10,2,3.207963056,1,1
1,22,bCFS,f42887_e_114,1,9,1,3.319818877,1,1
1,23,bCFS,f42887_e_005,0,9,1,2.126995748,1,1
1,24,bCFS,f42887_e_139,1,9,1,1.729022077,1,1
1,25,bCFS,f42887_e_038,1,10,2,2.71120897,1,1
1,26,bCFS,f42887_e_220,1,10,2,4.008465533,1,1
1,27,bCFS,f42887_e_175,0,9,1,1.769753299,1,1
1,28,bCFS,f42887_e_126,1,9,1,1.188679779,1,1
1,29,bCFS,f42887_e_129,1,9,1,2.681578827,1,1
1,30,bCFS,f42887_e_149,1,10,2,1.471586083,1,1
1,31,bCFS,f42887_e_108,1,9,1,2.011167636,1,1
1,32,bCFS,f42887_e_008,1,10,2,1.70960413,1,1
1,33,bCFS,f42887_e_244,0,10,2,1.950040323,1,1
1,34,bCFS,f42887_e_081,0,9,1,1.82083201,1,1
1,35,bCFS,f42887_e_104,0,10,2,1.78493708,1,1
1,36,bCFS,f42887_e_063,0,10,2,2.032669388,1,1
1,37,bCFS,f42887_e_095,0,9,1,3.454895121,1,1
1,38,bCFS,f42887_e_173,1,10,2,2.010110183,1,1
1,39,bCFS,f42887_e_045,0,9,1,1.546040414,1,1
1,40,bCFS,f42887_e_272,1,9,1,2.110095161,1,1
1,41,bCFS,f42887_e_128,0,10,2,1.798823926,1,1
1,42,bCFS,f42887_e_119,0,10,2,1.738218497,1,1
1,43,bCFS,f42887_e_030,1,9,1,2.424603758,1,1
1,44,bCFS,f42887_e_068,0,9,1,1.47128813,1,1
1,45,bCFS,f42887_e_236,0,9,1,1.730291642,1,1
1,46,bCFS,f42887_e_225,1,10,2,3.123528546,1,1
1,47,bCFS,f42887_e_056,0,10,2,1.898083615,1,1
1,48,bCFS,f42887_e_194,1,9,1,1.43913845,1,1
1,49,bCFS,f42887_e_215,0,9,1,3.737470193,1,1
1,50,bCFS,f42887_e_032,0,10,2,1.55157307,1,1
1,51,bCFS,f42887_e_017,1,10,2,3.982347378,1,1
1,52,bCFS,f42887_e_230,0,10,2,1.83197321,1,1
1,53,bCFS,f42887_e_292,1,9,1,2.137854235,1,1
1,54,bCFS,f42887_e_227,0,9,1,2.290287637,1,1
1,55,bCFS,f42887_e_226,0,9,1,1.766873917,1,1
1,56,bCFS,f42887_e_152,1,10,2,5.876384991,1,1
1,57,bCFS,f42887_e_043,0,10,2,2.645582506,1,1
1,58,bCFS,f42887_e_039,0,10,2,1.760275411,1,1
1,59,bCFS,f42887_e_275,0,9,1,3.821103527,1,1
1,60,bCFS,f42887_e_040,1,10,2,3.243074849,1,1
1,61,bCFS,f42887_e_034,1,9,1,1.550009284,1,1
1,62,bCFS,f42887_e_290,0,9,1,3.764381127,1,1
1,63,bCFS,f42887_e_093,0,10,2,2.994181832,1,1
1,64,bCFS,f42887_e_014,1,10,2,4.749711144,1,1
1,65,bCFS,f42887_e_020,1,9,1,1.471972675,1,1
1,66,bCFS,f42887_e_159,0,10,2,3.717814008,1,1
1,67,bCFS,f42887_e_178,1,10,2,1.944290889,1,1
1,68,bCFS,f42887_e_109,1,9,1,2.635233462,1,1
1,69,bCFS,f42887_e_107,1,10,2,2.115515852,1,1
1,70,bCFS,f42887_e_004,0,9,1,2.917202987,1,1
1,71,bCFS,f42887_e_254,0,9,1,1.52262374,1,1
1,72,bCFS,f42887_e_131,1,10,2,4.585406589,1,1
1,73,bCFS,f42887_e_174,0,9,1,2.474386778,1,1
1,74,bCFS,f42887_e_216,0,10,2,4.223232988,1,1
1,75,bCFS,f42887_e_115,1,9,1,1.522875351,1,1
1,76,bCFS,f42887_e_190,1,9,1,1.260911282,1,1
1,77,bCFS,f42887_e_279,1,9,1,2.05567521,1,1
1,78,bCFS,f42887_e_281,1,10,2,1.327090421,1,1
1,79,bCFS,f42887_e_177,0,9,1,2.017641737,1,1
1,80,bCFS,f42887_e_091,1,9,1,1.977493046,1,1
1,81,bCFS,f42887_e_286,1,10,2,1.820684278,1,1
1,82,bCFS,f42887_e_047,0,10,2,1.57457796,1,1
1,83,bCFS,f42887_e_033,0,9,1,4.078864221,1,1
1,84,bCFS,f42887_e_145,1,9,1,5.997557906,1,1
1,85,bCFS,f42887_e_023,0,9,1,3.405046477,1,1
1,86,bCFS,f42887_e_003,0,9,1,4.858872326,1,1
1,87,bCFS,f42887_e_158,0,9,1,1.624956574,1,1
1,88,bCFS,f42887_e_042,1,9,1,1.793697456,1,1
1,89,bCFS,f42887_e_268,0,10,2,1.9751116,1,1
1,90,bCFS,f42887_e_133,0,10,2,2.903409757,1,1
1,91,bCFS,f42887_e_071,1,9,1,2.353202356,1,1
1,92,bCFS,f42887_e_148,0,10,2,2.0053532,1,1
1,93,bCFS,f42887_e_089,1,9,1,1.337724044,1,1
1,94,bCFS,f42887_e_076,0,9,1,2.578393188,1,1
1,95,bCFS,f42887_e_087,1,10,2,2.368796989,1,1
1,96,bCFS,f42887_e_048,1,9,1,1.466539544,1,1
1,97,bCFS,f42887_e_117,0,9,1,3.468774191,1,1
1,98,bCFS,f42887_e_049,1,9,1,1.185205424,1,1
1,99,bCFS,f42887_e_255,0,9,1,1.581914817,1,1
1,100,bCFS,f42887_e_150,0,10,2,1.684055755,1,1
1,101,bCFS,f42887_e_140,1,9,1,3.905530261,1,1
1,102,bCFS,f42887_e_253,0,10,2,2.586448491,1,1
1,103,bCFS,f42887_e_234,1,9,1,2.020175892,1,1
1,104,bCFS,f42887_e_241,0,10,2,2.399997761,1,1
1,105,bCFS,f42887_e_138,0,10,2,3.482413468,1,1
1,106,bCFS,f42887_e_235,1,9,1,1.83736,1,1
1,107,bCFS,f42887_e_257,1,9,1,2.295182711,1,1
1,108,bCFS,f42887_e_213,0,9,1,3.081864277,1,1
1,109,bCFS,f42887_e_099,1,9,1,3.703032682,1,1
1,110,bCFS,f42887_e_224,1,10,2,5.384790965,1,1
1,111,bCFS,f42887_e_282,0,9,1,10.47565759,1,1
1,112,bCFS,f42887_e_083,0,9,1,8.742672862,1,1
1,113,bCFS,f42887_e_181,1,9,1,6.636215338,1,1
1,114,bCFS,f42887_e_208,0,10,2,3.196377415,1,1
1,115,bCFS,f42887_e_157,1,10,2,2.546701944,1,1
1,116,bCFS,f42887_e_002,1,9,1,1.650945969,1,1
1,117,bCFS,f42887_e_240,0,10,2,4.141413808,1,1
1,118,bCFS,f42887_e_168,1,10,2,4.047795008,1,1
1,119,bCFS,f42887_e_169,1,9,1,2.482426842,1,1
1,120,bCFS,f42887_e_163,1,10,2,5.017773607,1,1
1,121,bCFS,f42887_e_274,1,10,2,2.126924837,1,1
1,122,bCFS,f42887_e_273,1,9,1,1.650911758,1,1
1,123,bCFS,f42887_e_106,1,9,1,1.816157135,1,1
1,124,bCFS,f42887_e_247,1,10,2,2.656504751,1,1
1,125,bCFS,f42887_e_029,0,9,1,2.807338288,1,1
1,126,bCFS,f42887_e_024,1,10,2,1.785419465,1,1
1,127,bCFS,f42887_e_011,1,10,2,2.525028201,1,1
1,128,bCFS,f42887_e_206,1,10,2,2.126904621,1,1
1,129,bCFS,f42887_e_288,1,9,1,2.048105402,1,1
1,130,bCFS,f42887_e_200,1,9,1,1.107983055,1,1
1,131,bCFS,f42887_e_090,0,9,1,3.040893884,1,1
1,132,bCFS,f42887_e_298,0,10,2,2.960229505,1,1
1,133,bCFS,f42887_e_214,1,10,2,2.188186509,1,1
1,134,bCFS,f42887_e_217,0,9,1,2.669726645,1,1
1,135,bCFS,f42887_e_266,1,9,1,2.179178253,1,1
1,136,bCFS,f42887_e_066,0,9,1,2.389783387,1,1
1,137,bCFS,f42887_e_170,0,9,1,4.254675108,1,1
1,138,bCFS,f42887_e_229,0,10,2,2.826591086,1,1
1,139,bCFS,f42887_e_204,0,9,1,2.437915536,1,1
1,140,bCFS,f42887_e_210,0,9,1,3.542477419,1,1
1,141,bCFS,f42887_e_287,0,10,2,6.01988758,1,1
1,142,bCFS,f42887_e_238,0,9,1,2.95107445,1,1
1,143,bCFS,f42887_e_218,1,10,2,2.355381643,1,1
1,144,bCFS,f42887_e_182,1,9,1,1.927052229,1,1
1,145,bCFS,f42887_e_222,1,10,2,2.266169311,1,1
1,146,bCFS,f42887_e_256,1,9,1,1.721690196,1,1
1,147,bCFS,f42887_e_154,0,10,2,8.853071574,1,1
1,148,bCFS,f42887_e_164,1,10,2,2.811966511,1,1
1,149,bCFS,f42887_e_258,1,9,1,1.451589647,1,1
1,150,bCFS,f42887_e_192,1,9,1,1.725285847,1,1
1,151,bCFS,f42887_e_250,1,9,1,2.25159792,1,1
1,152,bCFS,f42887_e_051,0,10,2,2.050182364,1,1
1,153,bCFS,f42887_e_267,1,9,1,1.936503992,1,1
1,154,bCFS,f42887_e_259,1,10,2,5.770106302,1,1
1,155,bCFS,f42887_e_205,0,9,1,6.146046074,1,1
1,156,bCFS,f42887_e_289,0,9,1,2.172995264,1,1
1,157,bCFS,f42887_e_098,0,10,2,8.99984387,1,1
1,158,bCFS,f42887_e_007,1,10,2,5.493258582,1,1
1,159,bCFS,f42887_e_198,1,10,2,4.277378935,1,1
1,160,bCFS,f42887_e_055,1,10,2,0.392019278,1,1
1,161,bCFS,f42887_e_191,0,10,2,4.349744796,1,1
1,162,bCFS,f42887_e_134,1,10,2,1.725949554,1,1
1,163,bCFS,f42887_e_127,1,9,1,2.160903911,1,1
1,164,bCFS,f42887_e_122,1,10,2,3.188378094,1,1
1,165,bCFS,f42887_e_278,1,9,1,2.018365781,1,1
1,166,bCFS,f42887_e_123,0,10,2,3.164101773,1,1
1,167,bCFS,f42887_e_141,0,9,1,1.897789706,1,1
1,168,bCFS,f42887_e_155,1,9,1,4.779352173,1,1
1,169,bCFS,f42887_e_070,0,9,1,1.894801779,1,1
1,170,bCFS,f42887_e_069,0,10,2,1.762144925,1,1
1,171,bCFS,f42887_e_248,0,10,2,2.424057926,1,1
1,172,bCFS,f42887_e_243,0,9,1,4.046666644,1,1
1,173,bCFS,f42887_e_078,0,9,1,3.940633968,1,1
1,174,bCFS,f42887_e_062,0,10,2,3.087810273,1,1
1,175,bCFS,f42887_e_046,0,10,2,3.563564898,1,1
1,176,bCFS,f42887_e_125,1,10,2,4.390729496,1,1
1,177,bCFS,f42887_e_228,1,10,2,1.413558351,1,1
1,178,bCFS,f42887_e_074,1,10,2,3.357902113,1,1
1,179,bCFS,f42887_e_053,1,10,2,6.096694122,1,1
1,180,bCFS,f42887_e_096,0,9,1,1.588170585,1,1
1,181,bCFS,f42887_e_179,0,9,1,3.761682445,1,1
1,182,bCFS,f42887_e_113,0,10,2,2.544584239,1,1
1,183,bCFS,f42887_e_172,1,9,1,2.05864883,1,1
1,184,bCFS,f42887_e_233,0,10,2,1.703532484,1,1
1,185,bCFS,f42887_e_291,0,10,2,2.826843941,1,1
1,186,bCFS,f42887_e_146,1,10,2,2.968424765,1,1
1,187,bCFS,f42887_e_185,1,9,1,1.473525576,1,1
1,188,bCFS,f42887_e_075,0,10,2,2.186232087,1,1
1,189,bCFS,f42887_e_251,1,10,2,3.433523685,1,1
1,190,bCFS,f42887_e_180,0,9,1,1.573346027,1,1
1,191,bCFS,f42887_e_136,0,9,1,1.479143762,1,1
1,192,bCFS,f42887_e_112,1,10,2,3.33674901,1,1
1,193,bCFS,f42887_e_221,1,9,1,2.005839318,1,1
1,194,bCFS,f42887_e_219,0,9,1,1.995599441,1,1
1,195,bCFS,f42887_e_080,0,10,2,2.658956176,1,1
1,196,bCFS,f42887_e_223,1,9,1,1.788650295,1,1
1,197,bCFS,f42887_e_263,0,9,1,2.160638926,1,1
1,198,bCFS,f42887_e_176,0,9,1,1.807211083,1,1
1,199,bCFS,f42887_e_018,0,10,2,2.048001834,1,1
1,200,bCFS,f42887_e_013,1,10,2,3.568678305,1,1
1,201,bCFS,f42887_e_031,1,9,1,3.009805388,1,1
1,202,bCFS,f42887_e_035,1,9,1,2.422302243,1,1
1,203,bCFS,f42887_e_027,1,9,1,1.384877427,1,1
1,204,bCFS,f42887_e_188,0,9,1,2.113181369,1,1
1,205,bCFS,f42887_e_132,0,10,2,5.63698448,1,1
1,206,bCFS,f42887_e_167,0,10,2,1.632957761,1,1
1,207,bCFS,f42887_e_269,1,10,2,6.048295432,1,1
1,208,bCFS,f42887_e_009,0,10,2,4.173423532,1,1
1,209,bCFS,f42887_e_021,1,9,1,1.326363267,1,1
1,210,bCFS,f42887_e_271,0,9,1,1.807763758,1,1
1,211,bCFS,f42887_e_105,1,9,1,2.110299499,1,1
1,212,bCFS,f42887_e_277,1,9,1,2.012722714,1,1
1,213,bCFS,f42887_e_065,1,9,1,1.192742265,1,1
1,214,bCFS,f42887_e_016,1,10,2,4.455987408,1,1
1,215,bCFS,f42887_e_237,1,9,1,2.020838044,1,1
1,216,bCFS,f42887_e_201,1,9,1,1.970901071,1,1
1,217,bCFS,f42887_e_160,0,10,2,2.349306264,1,1
1,218,bCFS,f42887_e_037,0,9,1,2.207580196,1,1
1,219,bCFS,f42887_e_135,0,10,2,1.582176692,1,1
1,220,bCFS,f42887_e_209,0,10,2,5.403074949,1,1
1,221,bCFS,f42887_e_293,0,9,1,1.202814193,1,1
1,222,bCFS,f42887_e_184,0,10,2,3.928988612,1,1
1,223,bCFS,f42887_e_189,0,10,2,1.197837011,1,1
1,224,bCFS,f42887_e_118,1,10,2,1.900638919,1,1
1,225,bCFS,f42887_e_094,0,10,2,1.367415457,1,1
1,226,bCFS,f42887_e_054,0,10,2,2.334162605,1,1
1,227,bCFS,f42887_e_162,1,10,2,2.70178582,1,1
1,228,bCFS,f42887_e_100,0,10,2,1.41664798,1,1
1,229,bCFS,f42887_e_103,1,10,2,1.899338563,1,1
1,230,bCFS,f42887_e_297,1,9,1,1.549050734,1,1
1,231,bCFS,f42887_e_110,0,9,1,1.726111282,1,1
1,232,bCFS,f42887_e_092,0,9,1,3.123146619,1,1
1,233,bCFS,f42887_e_111,1,9,1,1.820559872,1,1
1,234,bCFS,f42887_e_193,0,9,1,4.903188936,1,1
1,235,bCFS,f42887_e_022,0,9,1,1.172368878,1,1
1,236,bCFS,f42887_e_025,1,9,1,2.073519418,1,1
1,237,bCFS,f42887_e_261,0,9,1,1.793489697,1,1
1,238,bCFS,f42887_e_102,0,10,2,2.130213204,1,1
1,239,bCFS,f42887_e_044,1,9,1,2.207759963,1,1
1,240,bCFS,f42887_e_060,0,10,2,2.654735383,1,1
1,241,bCFS,f42887_e_264,0,9,1,1.619725914,1,1
1,242,bCFS,f42887_e_187,1,10,2,3.812795057,1,1
1,243,bCFS,f42887_e_052,1,10,2,3.55390662,1,1
1,244,bCFS,f42887_e_147,0,9,1,1.38009774,1,1
1,245,bCFS,f42887_e_137,0,9,1,1.47599193,1,1
1,246,bCFS,f42887_e_245,1,9,1,1.707538987,1,1
1,247,bCFS,f42887_e_006,0,10,2,1.574907947,1,1
1,248,bCFS,f42887_e_212,0,10,2,1.750187931,1,1
1,249,bCFS,f42887_e_001,0,9,1,1.718543029,1,1
1,250,bCFS,f42887_e_059,0,10,2,1.447682048,1,1
1,251,bCFS,f42887_e_202,1,10,2,1.47060203,1,1
1,252,bCFS,f42887_e_028,0,10,2,3.176870829,1,1
1,253,bCFS,f42887_e_120,0,10,2,1.444426025,1,1
1,254,bCFS,f42887_e_050,1,9,1,4.206306898,1,1
1,255,bCFS,f42887_e_242,1,10,2,4.007556124,1,1
1,256,bCFS,f42887_e_086,0,9,1,2.592360586,1,1
1,257,bCFS,f42887_e_265,0,10,2,1.446210633,1,1
1,258,bCFS,f42887_e_199,0,9,1,3.246630379,1,1
1,259,bCFS,f42887_e_067,1,9,1,1.48669211,1,1
1,260,bCFS,f42887_e_088,1,10,2,1.048262154,1,1
1,261,bCFS,f42887_e_153,1,10,2,2.107591797,1,1
1,262,bCFS,f42887_e_015,0,9,1,1.868079631,1,1
1,263,bCFS,f42887_e_058,0,10,2,2.059128727,1,1
1,264,bCFS,f42887_e_270,1,9,1,2.570654809,1,1
1,265,bCFS,f42887_e_085,1,9,2,2.177870122,0,1
1,266,bCFS,f42887_e_165,1,9,1,2.140854602,1,1
1,267,bCFS,f42887_e_116,0,9,1,3.139649106,1,1
1,268,bCFS,f42887_e_195,0,9,1,2.770658666,1,1
1,269,bCFS,f42887_e_079,1,9,1,2.895773703,1,1
1,270,bCFS,f42887_e_151,1,9,1,4.090189853,1,1
1,271,bCFS,f42887_e_207,0,9,1,2.4686728,1,1
1,272,bCFS,f42887_e_097,0,9,1,2.071306542,1,1
1,273,bCFS,f42887_e_249,0,9,1,2.501406257,1,1
1,274,bCFS,f42887_e_124,1,9,1,3.444909966,1,1
1,275,bCFS,f42887_e_084,0,10,2,2.236293777,1,1
1,276,bCFS,f42887_e_161,1,9,1,2.101301196,1,1
1,277,bCFS,f42887_e_252,1,10,2,4.596467547,1,1
1,278,bCFS,f42887_e_183,0,10,2,2.084805863,1,1
1,279,bCFS,f42887_e_101,1,9,1,1.502376004,1,1
1,280,bCFS,f42887_e_196,0,9,1,1.443933377,1,1
1,281,bCFS,f42887_e_197,1,10,2,1.687102775,1,1
1,282,bCFS,f42887_e_130,0,10,2,2.174348803,1,1
1,283,bCFS,f42887_e_186,0,9,1,3.570317979,1,1
1,284,bCFS,f42887_e_262,0,9,1,2.235274268,1,1
1,285,bCFS,f42887_e_144,1,10,2,4.770563495,1,1
1,286,bCFS,f42887_e_203,0,10,2,1.941089606,1,1
1,287,bCFS,f42887_e_171,1,9,1,1.370538987,1,1
1,288,bCFS,f42887_e_260,1,9,1,1.980935678,1,1
1,289,bCFS,f42887_e_246,1,10,2,2.956274319,1,1
1,290,bCFS,f42887_e_296,1,10,2,5.439694856,1,1
1,291,bCFS,f42887_e_285,1,9,1,1.8363831,1,1
1,292,bCFS,f42887_e_082,1,10,2,3.618766742,1,1
1,293,bCFS,f42887_e_294,0,10,2,2.04452779,1,1
1,294,bCFS,f42887_e_061,0,9,1,1.824472759,1,1
1,295,bCFS,f42887_e_231,1,9,1,1.92183121,1,1
1,296,bCFS,f42887_e_156,0,9,1,5.515784818,1,1
1,297,bCFS,f42887_e_010,0,10,2,3.96799743,1,1
1,298,bCFS,f42887_e_280,1,10,2,3.915934666,1,1
1,299,bCFS,f42887_e_073,1,9,1,1.388993718,1,1
1,300,bCFS,f42887_e_041,1,9,1,1.550078329,1,1
1,301,bCFS,f42887_e_073,1,9,1,2.755851525,1,2
1,302,bCFS,f42887_e_024,1,10,2,4.020973647,1,2
1,303,bCFS,f42887_e_200,1,9,1,1.13417461,1,2
1,304,bCFS,f42887_e_128,0,10,2,1.335677872,1,2
1,305,bCFS,f42887_e_121,1,10,2,2.146220865,1,2
1,306,bCFS,f42887_e_037,0,9,1,2.02371867,1,2
1,307,bCFS,f42887_e_236,0,9,1,4.56629406,1,2
1,308,bCFS,f42887_e_192,1,9,1,1.91933842,1,2
1,309,bCFS,f42887_e_176,0,9,1,1.754809623,1,2
1,310,bCFS,f42887_e_015,0,9,1,2.21343973,1,2
1,311,bCFS,f42887_e_196,0,9,1,1.997879185,1,2
1,312,bCFS,f42887_e_187,1,10,2,2.383477546,1,2
1,313,bCFS,f42887_e_237,1,9,1,1.997413594,1,2
1,314,bCFS,f42887_e_004,0,9,1,2.17731527,1,2
1,315,bCFS,f42887_e_277,1,9,1,2.40109689,1,2
1,316,bCFS,f42887_e_056,0,10,2,1.792925204,1,2
1,317,bCFS,f42887_e_157,1,10,2,2.703526264,1,2
1,318,bCFS,f42887_e_045,0,9,1,1.469088628,1,2
1,319,bCFS,f42887_e_082,1,10,2,2.51591078,1,2
1,320,bCFS,f42887_e_065,1,9,1,1.260520335,1,2
1,321,bCFS,f42887_e_013,1,10,2,2.164862517,1,2
1,322,bCFS,f42887_e_103,1,10,2,3.535473038,1,2
1,323,bCFS,f42887_e_294,0,10,2,3.458286746,1,2
1,324,bCFS,f42887_e_144,1,10,2,3.165130924,1,2
1,325,bCFS,f42887_e_101,1,9,1,1.306652654,1,2
1,326,bCFS,f42887_e_164,1,10,2,3.741801396,1,2
1,327,bCFS,f42887_e_060,0,10,2,2.400002115,1,2
1,328,bCFS,f42887_e_091,1,9,1,1.400203342,1,2
1,329,bCFS,f42887_e_142,0,10,2,1.789975221,1,2
1,330,bCFS,f42887_e_002,1,9,1,1.527273112,1,2
1,331,bCFS,f42887_e_022,0,9,1,1.53542172,1,2
1,332,bCFS,f42887_e_069,0,10,2,1.760040905,1,2
1,333,bCFS,f42887_e_214,1,10,2,3.455376884,1,2
1,334,bCFS,f42887_e_030,1,9,1,1.474532645,1,2
1,335,bCFS,f42887_e_285,1,9,1,2.08373939,1,2
1,336,bCFS,f42887_e_040,1,10,2,2.268547336,1,2
1,337,bCFS,f42887_e_111,1,9,1,3.608785941,1,2
1,338,bCFS,f42887_e_110,0,9,1,2.274973229,1,2
1,339,bCFS,f42887_e_075,0,10,2,1.753506778,1,2
1,340,bCFS,f42887_e_092,0,9,1,1.996209031,1,2
1,341,bCFS,f42887_e_233,0,10,2,2.024252684,1,2
1,342,bCFS,f42887_e_051,0,10,2,1.909896298,1,2
1,343,bCFS,f42887_e_186,0,9,1,3.21840696,1,2
1,344,bCFS,f42887_e_178,1,10,2,3.628964321,1,2
1,345,bCFS,f42887_e_271,0,9,1,1.696251609,1,2
1,346,bCFS,f42887_e_210,0,9,1,1.811882848,1,2
1,347,bCFS,f42887_e_094,0,10,2,1.396282058,1,2
1,348,bCFS,f42887_e_052,1,10,2,2.327096953,1,2
1,349,bCFS,f42887_e_019,1,10,2,3.658051742,1,2
1,350,bCFS,f42887_e_057,1,10,2,1.865130892,1,2
1,351,bCFS,f42887_e_127,1,9,1,1.644273441,1,2
1,352,bCFS,f42887_e_205,0,9,1,2.260062209,1,2
1,353,bCFS,f42887_e_230,0,10,2,1.685856846,1,2
1,354,bCFS,f42887_e_108,1,9,1,2.215681219,1,2
1,355,bCFS,f42887_e_249,0,9,1,1.859625606,1,2
1,356,bCFS,f42887_e_217,0,9,1,1.659645386,1,2
1,357,bCFS,f42887_e_216,0,10,2,1.760705234,1,2
1,358,bCFS,f42887_e_059,0,10,2,1.452119618,1,2
1,359,bCFS,f42887_e_163,1,10,2,3.02567247,1,2
1,360,bCFS,f42887_e_270,1,9,1,1.420784798,1,2
1,361,bCFS,f42887_e_209,0,10,2,1.773325002,1,2
1,362,bCFS,f42887_e_240,0,10,2,3.511444596,1,2
1,363,bCFS,f42887_e_179,0,9,1,2.255448293,1,2
1,364,bCFS,f42887_e_250,1,9,1,1.800232515,1,2
1,365,bCFS,f42887_e_168,1,10,2,1.995795069,1,2
1,366,bCFS,f42887_e_202,1,10,2,2.350208831,1,2
1,367,bCFS,f42887_e_170,0,9,1,1.97779131,1,2
1,368,bCFS,f42887_e_001,0,9,1,2.18942404,1,2
1,369,bCFS,f42887_e_291,0,10,2,2.497847306,1,2
1,370,bCFS,f42887_e_139,1,9,1,1.909531788,1,2
1,371,bCFS,f42887_e_028,0,10,2,1.507885334,1,2
1,372,bCFS,f42887_e_225,1,10,2,5.322968221,1,2
1,373,bCFS,f42887_e_126,1,9,1,1.165712212,1,2
1,374,bCFS,f42887_e_189,0,10,2,1.669366178,1,2
1,375,bCFS,f42887_e_116,0,9,1,1.891285437,1,2
1,376,bCFS,f42887_e_222,1,10,2,2.17465702,1,2
1,377,bCFS,f42887_e_132,0,10,2,1.897025229,1,2
1,378,bCFS,f42887_e_034,1,9,1,1.490215916,1,2
1,379,bCFS,f42887_e_033,0,9,1,1.980562459,1,2
1,380,bCFS,f42887_e_268,0,10,2,1.47363692,1,2
1,381,bCFS,f42887_e_263,0,9,1,2.361225625,1,2
1,382,bCFS,f42887_e_232,0,9,1,2.505148085,1,2
1,383,bCFS,f42887_e_011,1,10,2,2.373668115,1,2
1,384,bCFS,f42887_e_153,1,10,2,5.730941354,1,2
1,385,bCFS,f42887_e_017,1,10,2,2.456157533,1,2
1,386,bCFS,f42887_e_026,0,10,2,1.927660886,1,2
1,387,bCFS,f42887_e_262,0,9,1,1.759859272,1,2
1,388,bCFS,f42887_e_245,1,9,1,2.573419116,1,2
1,389,bCFS,f42887_e_174,0,9,1,2.398834562,1,2
1,390,bCFS,f42887_e_257,1,9,1,1.757288417,1,2
1,391,bCFS,f42887_e_224,1,10,2,1.86408899,1,2
1,392,bCFS,f42887_e_119,0,10,2,1.855445556,1,2
1,393,bCFS,f42887_e_296,1,10,2,6.424154652,1,2
1,394,bCFS,f42887_e_125,1,10,2,2.883371645,1,2
1,395,bCFS,f42887_e_274,1,10,2,2.166062415,1,2
1,396,bCFS,f42887_e_044,1,9,1,1.36884644,1,2
1,397,bCFS,f42887_e_014,1,10,2,1.394655135,1,2
1,398,bCFS,f42887_e_297,1,9,1,1.369240497,1,2
1,399,bCFS,f42887_e_012,0,9,1,2.383894307,1,2
1,400,bCFS,f42887_e_055,1,10,2,10.17272126,1,2
1,401,bCFS,f42887_e_099,1,9,1,2.830308966,1,2
1,402,bCFS,f42887_e_102,0,10,2,1.894920587,1,2
1,403,bCFS,f42887_e_219,0,9,1,2.207843315,1,2
1,404,bCFS,f42887_e_072,1,10,2,2.32597543,1,2
1,405,bCFS,f42887_e_243,0,9,1,1.690826875,1,2
1,406,bCFS,f42887_e_221,1,9,1,1.702020326,1,2
1,407,bCFS,f42887_e_138,0,10,2,1.223092098,1,2
1,408,bCFS,f42887_e_090,0,9,1,1.721612753,1,2
1,409,bCFS,f42887_e_081,0,9,1,2.461358336,1,2
1,410,bCFS,f42887_e_288,1,9,1,1.868307295,1,2
1,411,bCFS,f42887_e_162,1,10,2,3.311896377,1,2
1,412,bCFS,f42887_e_228,1,10,2,1.929532267,1,2
1,413,bCFS,f42887_e_242,1,10,2,1.53470203,1,2
1,414,bCFS,f42887_e_084,0,10,2,2.052733625,1,2
1,415,bCFS,f42887_e_146,1,10,2,3.454666835,1,2
1,416,bCFS,f42887_e_215,0,9,1,1.734643683,1,2
1,417,bCFS,f42887_e_287,0,10,2,1.425740209,1,2
1,418,bCFS,f42887_e_133,0,10,2,2.952334063,1,2
1,419,bCFS,f42887_e_123,0,10,2,1.241235503,1,2
1,420,bCFS,f42887_e_295,1,10,2,2.115431567,1,2
1,421,bCFS,f42887_e_078,0,9,1,4.539335229,1,2
1,422,bCFS,f42887_e_035,1,9,1,3.45335746,1,2
1,423,bCFS,f42887_e_272,1,9,1,3.550046917,1,2
1,424,bCFS,f42887_e_042,1,9,1,2.448738878,1,2
1,425,bCFS,f42887_e_188,0,9,1,1.788344878,1,2
1,426,bCFS,f42887_e_109,1,9,1,1.476227369,1,2
1,427,bCFS,f42887_e_281,1,10,2,5.371490695,1,2
1,428,bCFS,f42887_e_261,0,9,1,2.322441982,1,2
1,429,bCFS,f42887_e_208,0,10,2,1.524601177,1,2
1,430,bCFS,f42887_e_155,1,9,1,2.479378578,1,2
1,431,bCFS,f42887_e_147,0,9,1,1.590881396,1,2
1,432,bCFS,f42887_e_173,1,10,2,1.933607193,1,2
1,433,bCFS,f42887_e_113,0,10,2,2.158172572,1,2
1,434,bCFS,f42887_e_284,0,10,2,1.841467583,1,2
1,435,bCFS,f42887_e_247,1,10,2,3.182719788,1,2
1,436,bCFS,f42887_e_100,0,10,2,1.216412417,1,2
1,437,bCFS,f42887_e_077,1,10,2,1.761591628,1,2
1,438,bCFS,f42887_e_083,0,9,1,1.737020465,1,2
1,439,bCFS,f42887_e_234,1,9,1,2.064411949,1,2
1,440,bCFS,f42887_e_053,1,10,2,4.696687031,1,2
1,441,bCFS,f42887_e_180,0,9,1,1.337319413,1,2
1,442,bCFS,f42887_e_169,1,9,1,1.79642724,1,2
1,443,bCFS,f42887_e_259,1,10,2,1.741832809,1,2
1,444,bCFS,f42887_e_131,1,10,2,3.383469771,1,2
1,445,bCFS,f42887_e_154,0,10,2,2.852934416,1,2
1,446,bCFS,f42887_e_095,0,9,1,2.63482541,1,2
1,447,bCFS,f42887_e_115,1,9,1,3.294640611,1,2
1,448,bCFS,f42887_e_165,1,9,1,2.270542501,1,2
1,449,bCFS,f42887_e_246,1,10,2,2.181847389,1,2
1,450,bCFS,f42887_e_114,1,9,1,1.398272868,1,2
1,451,bCFS,f42887_e_007,1,10,2,3.749590159,1,2
1,452,bCFS,f42887_e_135,0,10,2,1.795777528,1,2
1,453,bCFS,f42887_e_286,1,10,2,2.842749278,1,2
1,454,bCFS,f42887_e_184,0,10,2,3.669801289,1,2
1,455,bCFS,f42887_e_195,0,9,1,2.700318449,1,2
1,456,bCFS,f42887_e_149,1,10,2,3.699337817,1,2
1,457,bCFS,f42887_e_265,0,10,2,4.034102547,1,2
1,458,bCFS,f42887_e_255,0,9,1,1.890898533,1,2
1,459,bCFS,f42887_e_207,0,9,1,5.140561937,1,2
1,460,bCFS,f42887_e_223,1,9,1,1.870345069,1,2
1,461,bCFS,f42887_e_074,1,10,2,2.220199031,1,2
1,462,bCFS,f42887_e_086,0,9,1,1.925877834,1,2
1,463,bCFS,f42887_e_097,0,9,1,1.940268836,1,2
1,464,bCFS,f42887_e_047,0,10,2,1.468736247,1,2
1,465,bCFS,f42887_e_016,1,10,2,3.701542917,1,2
1,466,bCFS,f42887_e_282,0,9,1,1.55368922,1,2
1,467,bCFS,f42887_e_275,0,9,1,2.431650749,1,2
1,468,bCFS,f42887_e_161,1,9,1,2.130562475,1,2
1,469,bCFS,f42887_e_197,1,10,2,1.584787979,1,2
1,470,bCFS,f42887_e_088,1,10,2,2.790586989,1,2
1,471,bCFS,f42887_e_279,1,9,1,2.169909989,1,2
1,472,bCFS,f42887_e_093,0,10,2,2.229460764,1,2
1,473,bCFS,f42887_e_070,0,9,1,2.426944151,1,2
1,474,bCFS,f42887_e_063,0,10,2,1.718434484,1,2
1,475,bCFS,f42887_e_038,1,10,2,3.497978243,1,2
1,476,bCFS,f42887_e_266,1,9,1,1.517059049,1,2
1,477,bCFS,f42887_e_005,0,9,1,2.821067138,1,2
1,478,bCFS,f42887_e_071,1,9,1,2.317503366,1,2
1,479,bCFS,f42887_e_183,0,10,2,2.154279901,1,2
1,480,bCFS,f42887_e_299,0,10,1,1.253825414,0,2
1,481,bCFS,f42887_e_227,0,9,1,2.349641228,1,2
1,482,bCFS,f42887_e_087,1,10,2,3.138143791,1,2
1,483,bCFS,f42887_e_152,1,10,2,1.962611573,1,2
1,484,bCFS,f42887_e_226,0,9,1,1.870136688,1,2
1,485,bCFS,f42887_e_117,0,9,1,2.208690522,1,2
1,486,bCFS,f42887_e_036,1,9,1,2.424945564,1,2
1,487,bCFS,f42887_e_280,1,10,2,2.250661763,1,2
1,488,bCFS,f42887_e_267,1,9,1,1.304765412,1,2
1,489,bCFS,f42887_e_089,1,9,1,1.440110995,1,2
1,490,bCFS,f42887_e_029,0,9,1,1.895694394,1,2
1,491,bCFS,f42887_e_253,0,10,2,1.655476533,1,2
1,492,bCFS,f42887_e_039,0,10,2,1.701951592,1,2
1,493,bCFS,f42887_e_140,1,9,1,1.843588709,1,2
1,494,bCFS,f42887_e_021,1,9,1,1.891873878,1,2
1,495,bCFS,f42887_e_062,0,10,2,2.130030949,1,2
1,496,bCFS,f42887_e_239,0,9,1,1.974573543,1,2
1,497,bCFS,f42887_e_235,1,9,1,1.435962669,1,2
1,498,bCFS,f42887_e_124,1,9,1,1.550646555,1,2
1,499,bCFS,f42887_e_050,1,9,1,2.106757964,1,2
1,500,bCFS,f42887_e_193,0,9,1,2.324978003,1,2
1,501,bCFS,f42887_e_293,0,9,1,1.813277442,1,2
1,502,bCFS,f42887_e_181,1,9,1,3.266535066,1,2
1,503,bCFS,f42887_e_172,1,9,1,1.474125525,1,2
1,504,bCFS,f42887_e_006,0,10,2,1.3997617,1,2
1,505,bCFS,f42887_e_136,0,9,1,1.749676,1,2
1,506,bCFS,f42887_e_244,0,10,1,1.645444104,0,2
1,507,bCFS,f42887_e_107,1,10,2,2.238655629,1,2
1,508,bCFS,f42887_e_182,1,9,1,1.386261447,1,2
1,509,bCFS,f42887_e_027,1,9,1,1.654879072,1,2
1,510,bCFS,f42887_e_167,0,10,2,1.81195096,1,2
1,511,bCFS,f42887_e_048,1,9,1,1.471045227,1,2
1,512,bCFS,f42887_e_194,1,9,1,1.487542737,1,2
1,513,bCFS,f42887_e_251,1,10,2,1.877032215,1,2
1,514,bCFS,f42887_e_273,1,9,1,1.790473779,1,2
1,515,bCFS,f42887_e_058,0,10,2,1.897862794,1,2
1,516,bCFS,f42887_e_137,0,9,1,2.664966552,1,2
1,517,bCFS,f42887_e_122,1,10,2,4.333596867,1,2
1,518,bCFS,f42887_e_278,1,9,1,2.580478547,1,2
1,519,bCFS,f42887_e_129,1,9,1,2.115464845,1,2
1,520,bCFS,f42887_e_204,0,9,1,1.866727957,1,2
1,521,bCFS,f42887_e_118,1,10,2,2.03328271,1,2
1,522,bCFS,f42887_e_049,1,9,1,1.92724879,1,2
1,523,bCFS,f42887_e_203,0,10,2,1.848605391,1,2
1,524,bCFS,f42887_e_191,0,10,2,2.108281319,1,2
1,525,bCFS,f42887_e_211,1,9,1,1.472892971,1,2
1,526,bCFS,f42887_e_031,1,9,1,1.551470124,1,2
1,527,bCFS,f42887_e_256,1,9,1,1.412754376,1,2
1,528,bCFS,f42887_e_096,0,9,1,1.257059665,1,2
1,529,bCFS,f42887_e_283,1,9,1,1.335339799,1,2
1,530,bCFS,f42887_e_238,0,9,1,1.852605673,1,2
1,531,bCFS,f42887_e_130,0,10,2,2.806944231,1,2
1,532,bCFS,f42887_e_269,1,10,2,3.162781512,1,2
1,533,bCFS,f42887_e_199,0,9,1,4.863461983,1,2
1,534,bCFS,f42887_e_166,1,9,1,2.563029951,1,2
1,535,bCFS,f42887_e_213,0,9,1,2.542234827,1,2
1,536,bCFS,f42887_e_080,0,10,2,3.780569488,1,2
1,537,bCFS,f42887_e_020,1,9,1,1.7031913,1,2
1,538,bCFS,f42887_e_068,0,9,1,2.083135709,1,2
1,539,bCFS,f42887_e_198,1,10,2,1.630493585,1,2
1,540,bCFS,f42887_e_212,0,10,2,1.585262278,1,2
1,541,bCFS,f42887_e_151,1,9,1,1.747170147,1,2
1,542,bCFS,f42887_e_061,0,9,1,2.758279624,1,2
1,543,bCFS,f42887_e_175,0,9,1,1.305769992,1,2
1,544,bCFS,f42887_e_098,0,10,2,3.108485345,1,2
1,545,bCFS,f42887_e_009,0,10,2,2.715103508,1,2
1,546,bCFS,f42887_e_190,1,9,1,1.873391155,1,2
1,547,bCFS,f42887_e_206,1,10,2,1.383278185,1,2
1,548,bCFS,f42887_e_066,0,9,1,1.544151616,1,2
1,549,bCFS,f42887_e_112,1,10,2,2.326993073,1,2
1,550,bCFS,f42887_e_145,1,9,1,1.857006543,1,2
1,551,bCFS,f42887_e_264,0,9,1,1.791137176,1,2
1,552,bCFS,f42887_e_158,0,9,1,1.439558632,1,2
1,553,bCFS,f42887_e_289,0,9,1,1.337084907,1,2
1,554,bCFS,f42887_e_276,0,10,2,1.688408107,1,2
1,555,bCFS,f42887_e_148,0,10,2,1.831671214,1,2
1,556,bCFS,f42887_e_254,0,9,1,1.329406865,1,2
1,557,bCFS,f42887_e_054,0,10,1,1.574780431,0,2
1,558,bCFS,f42887_e_023,0,9,1,1.501536261,1,2
1,559,bCFS,f42887_e_041,1,9,1,2.051195031,1,2
1,560,bCFS,f42887_e_104,0,10,2,1.366437313,1,2
1,561,bCFS,f42887_e_134,1,10,2,2.914087544,1,2
1,562,bCFS,f42887_e_079,1,9,1,1.814796442,1,2
1,563,bCFS,f42887_e_046,0,10,2,1.953390894,1,2
1,564,bCFS,f42887_e_067,1,9,1,1.904660351,1,2
1,565,bCFS,f42887_e_160,0,10,2,1.574228067,1,2
1,566,bCFS,f42887_e_106,1,9,1,1.901304804,1,2
1,567,bCFS,f42887_e_003,0,9,1,1.907563681,1,2
1,568,bCFS,f42887_e_298,0,10,2,1.605339889,1,2
1,569,bCFS,f42887_e_252,1,10,2,1.586939274,1,2
1,570,bCFS,f42887_e_156,0,9,1,2.24401225,1,2
1,571,bCFS,f42887_e_290,0,9,1,1.891041601,1,2
1,572,bCFS,f42887_e_000,1,10,2,3.197275939,1,2
1,573,bCFS,f42887_e_201,1,9,1,1.239589609,1,2
1,574,bCFS,f42887_e_185,1,9,1,1.47839297,1,2
1,575,bCFS,f42887_e_105,1,9,1,1.538441059,1,2
1,576,bCFS,f42887_e_085,1,9,1,2.327504383,1,2
1,577,bCFS,f42887_e_043,0,10,2,1.742958996,1,2
1,578,bCFS,f42887_e_159,0,10,2,3.176386577,1,2
1,579,bCFS,f42887_e_258,1,9,1,1.526396359,1,2
1,580,bCFS,f42887_e_177,0,9,1,3.063956,1,2
1,581,bCFS,f42887_e_025,1,9,1,4.907884338,1,2
1,582,bCFS,f42887_e_010,0,10,2,2.017390747,1,2
1,583,bCFS,f42887_e_018,0,10,2,1.745220079,1,2
1,584,bCFS,f42887_e_008,1,10,2,2.220849676,1,2
1,585,bCFS,f42887_e_220,1,10,2,1.442662878,1,2
1,586,bCFS,f42887_e_064,0,9,1,1.662760518,1,2
1,587,bCFS,f42887_e_141,0,9,1,2.447779395,1,2
1,588,bCFS,f42887_e_150,0,10,2,1.678434149,1,2
1,589,bCFS,f42887_e_218,1,10,2,2.32277508,1,2
1,590,bCFS,f42887_e_229,0,10,2,1.825083593,1,2
1,591,bCFS,f42887_e_241,0,10,2,2.897931218,1,2
1,592,bCFS,f42887_e_143,0,9,1,1.792888815,1,2
1,593,bCFS,f42887_e_260,1,9,1,1.431807812,1,2
1,594,bCFS,f42887_e_248,0,10,2,1.772426789,1,2
1,595,bCFS,f42887_e_032,0,10,2,1.650164076,1,2
1,596,bCFS,f42887_e_231,1,9,1,2.645039784,1,2
1,597,bCFS,f42887_e_171,1,9,1,3.114394019,1,2
1,598,bCFS,f42887_e_120,0,10,2,4.294617284,1,2
1,599,bCFS,f42887_e_292,1,9,1,1.951508939,1,2
1,600,bCFS,f42887_e_076,0,9,1,2.85347154,1,2
2,1,bCFS,f42887_e_002,1,9,2,0.692016771,0,1
2,2,bCFS,f42887_e_167,0,9,1,1.12780394,1,1
2,3,bCFS,f42887_e_191,1,9,2,0.902856167,0,1
2,4,bCFS,f42887_e_025,0,10,2,0.847693479,1,1
2,5,bCFS,f42887_e_028,1,9,2,0.676614873,0,1
2,6,bCFS,f42887_e_244,1,10,2,0.787974694,1,1
2,7,bCFS,f42887_e_082,0,9,2,0.657553231,0,1
2,8,bCFS,f42887_e_157,1,10,2,0.737637754,1,1
2,9,bCFS,f42887_e_222,0,10,2,1.567865732,1,1
2,10,bCFS,f42887_e_257,0,10,2,0.889383199,1,1
2,11,bCFS,f42887_e_123,0,10,2,1.217557374,1,1
2,12,bCFS,f42887_e_202,0,10,2,1.217569504,1,1
2,13,bCFS,f42887_e_283,0,10,2,1.280423656,1,1
2,14,bCFS,f42887_e_060,0,9,1,2.83906492,1,1
2,15,bCFS,f42887_e_180,0,9,1,2.191043442,1,1
2,16,bCFS,f42887_e_214,1,9,1,2.736472371,1,1
2,17,bCFS,f42887_e_072,0,10,2,1.517477785,1,1
2,18,bCFS,f42887_e_269,1,10,2,2.247591403,1,1
2,19,bCFS,f42887_e_125,0,9,1,2.387751135,1,1
2,20,bCFS,f42887_e_198,0,10,2,1.717780218,1,1
2,21,bCFS,f42887_e_081,1,10,2,1.878037902,1,1
2,22,bCFS,f42887_e_005,1,9,1,3.937581895,1,1
2,23,bCFS,f42887_e_281,0,9,2,1.670183964,0,1
2,24,bCFS,f42887_e_208,1,10,2,1.280243576,1,1
2,25,bCFS,f42887_e_009,0,10,2,1.507854281,1,1
2,26,bCFS,f42887_e_159,0,9,1,1.897525016,1,1
2,27,bCFS,f42887_e_219,1,10,2,1.04790043,1,1
2,28,bCFS,f42887_e_018,0,9,1,2.137973279,1,1
2,29,bCFS,f42887_e_299,0,10,2,1.517776984,1,1
2,30,bCFS,f42887_e_296,0,10,2,1.552733797,1,1
2,31,bCFS,f42887_e_216,0,9,1,2.387529068,1,1
2,32,bCFS,f42887_e_100,0,9,1,1.596673419,1,1
2,33,bCFS,f42887_e_115,0,9,1,3.387680223,1,1
2,34,bCFS,f42887_e_056,0,9,1,1.697824712,1,1
2,35,bCFS,f42887_e_036,1,10,2,2.087419248,1,1
2,36,bCFS,f42887_e_064,0,9,2,3.337654611,0,1
2,37,bCFS,f42887_e_258,1,9,1,1.812879111,1,1
2,38,bCFS,f42887_e_172,1,9,2,1.597697289,0,1
2,39,bCFS,f42887_e_158,1,10,2,1.357801392,1,1
2,40,bCFS,f42887_e_213,0,9,1,1.827815105,1,1
2,41,bCFS,f42887_e_094,1,9,1,3.197537177,1,1
2,42,bCFS,f42887_e_242,1,9,1,5.246862067,1,1
2,43,bCFS,f42887_e_086,1,9,1,1.682441164,1,1
2,44,bCFS,f42887_e_212,1,10,2,2.107688571,1,1
2,45,bCFS,f42887_e_275,1,10,2,1.568026529,1,1
2,46,bCFS,f42887_e_274,1,9,1,2.997614496,1,1
2,47,bCFS,f42887_e_223,0,10,2,1.280668426,1,1
2,48,bCFS,f42887_e_228,1,9,1,2.38772501,1,1
2,49,bCFS,f42887_e_292,1,9,1,4.672639758,1,1
2,50,bCFS,f42887_e_112,0,9,1,2.201656915,1,1
2,51,bCFS,f42887_e_026,1,10,2,1.977716217,1,1
2,52,bCFS,f42887_e_152,0,9,1,1.767881097,1,1
2,53,bCFS,f42887_e_099,0,9,1,1.367833573,1,1
2,54,bCFS,f42887_e_085,1,10,2,1.292855026,1,1
2,55,bCFS,f42887_e_156,1,10,2,1.387770418,1,1
2,56,bCFS,f42887_e_264,0,10,1,3.53748492,0,1
2,57,bCFS,f42887_e_029,1,9,2,1.977632553,0,1
2,58,bCFS,f42887_e_140,1,10,1,1.607301509,0,1
2,59,bCFS,f42887_e_268,1,9,1,1.799450308,1,1
2,60,bCFS,f42887_e_134,0,9,1,5.23621687,1,1
2,61,bCFS,f42887_e_160,1,9,1,1.956539034,1,1
2,62,bCFS,f42887_e_103,0,10,2,3.879224745,1,1
2,63,bCFS,f42887_e_295,0,9,1,2.579154424,1,1
2,64,bCFS,f42887_e_253,1,10,1,1.457730076,0,1
2,65,bCFS,f42887_e_207,1,9,1,3.687711978,1,1
2,66,bCFS,f42887_e_153,0,10,2,1.79946617,1,1
2,67,bCFS,f42887_e_045,0,10,2,4.846297632,1,1
2,68,bCFS,f42887_e_193,1,9,1,3.893061604,1,1
2,69,bCFS,f42887_e_243,0,10,2,4.077875987,1,1
2,70,bCFS,f42887_e_046,1,10,2,3.112681335,1,1
2,71,bCFS,f42887_e_218,1,9,1,2.547562509,1,1
2,72,bCFS,f42887_e_195,1,9,1,2.237750808,1,1
2,73,bCFS,f42887_e_135,0,10,2,1.636579454,1,1
2,74,bCFS,f42887_e_298,0,10,2,2.320553935,1,1
2,75,bCFS,f42887_e_175,0,10,2,1.596514489,1,1
2,76,bCFS,f42887_e_037,0,9,1,3.196590128,1,1
2,77,bCFS,f42887_e_077,0,9,1,4.237589079,1,1
2,78,bCFS,f42887_e_270,0,10,2,2.060849333,1,1
2,79,bCFS,f42887_e_074,0,9,1,4.838090191,1,1
2,80,bCFS,f42887_e_271,1,10,2,2.416376876,1,1
2,81,bCFS,f42887_e_273,0,10,2,1.682373984,1,1
2,82,bCFS,f42887_e_097,1,10,2,1.327908255,1,1
2,83,bCFS,f42887_e_179,0,10,1,2.407523763,0,1
2,84,bCFS,f42887_e_137,0,10,2,2.557817068,1,1
2,85,bCFS,f42887_e_262,1,10,2,1.327801887,1,1
2,86,bCFS,f42887_e_020,0,9,1,2.916330379,1,1
2,87,bCFS,f42887_e_052,0,9,1,3.66751139,1,1
2,88,bCFS,f42887_e_138,1,9,1,2.416384963,1,1
2,89,bCFS,f42887_e_108,0,9,1,1.68257428,1,1
2,90,bCFS,f42887_e_090,1,10,2,1.36777448,1,1
2,91,bCFS,f42887_e_102,1,10,2,1.347871536,1,1
2,92,bCFS,f42887_e_217,1,10,2,1.367877427,1,1
2,93,bCFS,f42887_e_278,1,9,1,2.127776881,1,1
2,94,bCFS,f42887_e_261,0,10,2,1.597958854,1,1
2,95,bCFS,f42887_e_022,0,9,1,3.707817705,1,1
2,96,bCFS,f42887_e_121,1,9,1,1.942764691,1,1
2,97,bCFS,f42887_e_080,1,9,1,1.887342302,1,1
2,98,bCFS,f42887_e_049,0,10,2,2.527734831,1,1
2,99,bCFS,f42887_e_215,1,10,2,1.237777556,1,1
2,100,bCFS,f42887_e_128,1,10,2,1.216512977,1,1
2,101,bCFS,f42887_e_170,0,9,1,3.737087875,1,1
2,102,bCFS,f42887_e_209,0,10,2,1.670761212,1,1
2,103,bCFS,f42887_e_235,1,10,2,1.177629257,1,1
2,104,bCFS,f42887_e_239,0,9,1,1.647561794,1,1
2,105,bCFS,f42887_e_287,1,9,1,1.847450885,1,1
2,106,bCFS,f42887_e_095,0,10,2,2.060294478,1,1
2,107,bCFS,f42887_e_079,0,10,2,2.237523766,1,1
2,108,bCFS,f42887_e_186,0,9,1,1.847681349,1,1
2,109,bCFS,f42887_e_087,1,10,2,1.996635413,1,1
2,110,bCFS,f42887_e_289,0,10,2,1.67005147,1,1
2,111,bCFS,f42887_e_131,1,9,1,1.697589583,1,1
2,112,bCFS,f42887_e_068,0,10,2,1.567783935,1,1
2,113,bCFS,f42887_e_291,1,9,2,0.937863366,0,1
2,114,bCFS,f42887_e_189,1,10,2,1.95789476,1,1
2,115,bCFS,f42887_e_178,1,9,1,3.386387323,1,1
2,116,bCFS,f42887_e_084,0,9,1,1.757494978,1,1
2,117,bCFS,f42887_e_256,0,10,2,2.320678031,1,1
2,118,bCFS,f42887_e_169,0,9,1,1.617771292,1,1
2,119,bCFS,f42887_e_058,0,10,2,1.957604891,1,1
2,120,bCFS,f42887_e_073,1,10,2,1.327898613,1,1
2,121,bCFS,f42887_e_241,0,9,1,1.846381607,1,1
2,122,bCFS,f42887_e_075,1,9,1,3.490619867,1,1
2,123,bCFS,f42887_e_210,0,9,1,1.827658041,1,1
2,124,bCFS,f42887_e_023,0,10,2,1.800783018,1,1
2,125,bCFS,f42887_e_093,0,9,1,2.127839085,1,1
2,126,bCFS,f42887_e_043,1,9,1,1.827622896,1,1
2,127,bCFS,f42887_e_204,1,10,2,1.847927675,1,1
2,128,bCFS,f42887_e_092,1,9,1,1.800397356,1,1
2,129,bCFS,f42887_e_147,1,10,2,1.30779102,1,1
2,130,bCFS,f42887_e_249,0,9,1,1.929291101,1,1
2,131,bCFS,f42887_e_265,1,10,2,1.279592928,1,1
2,132,bCFS,f42887_e_227,0,10,2,2.190501649,1,1
2,133,bCFS,f42887_e_188,0,9,1,1.727737133,1,1
2,134,bCFS,f42887_e_162,1,9,2,2.579035927,0,1
2,135,bCFS,f42887_e_139,1,9,1,1.697420079,1,1
2,136,bCFS,f42887_e_276,0,10,2,3.242412339,1,1
2,137,bCFS,f42887_e_062,0,10,2,1.497429907,1,1
2,138,bCFS,f42887_e_279,0,9,1,3.5874701,1,1
2,139,bCFS,f42887_e_024,1,9,1,3.557509782,1,1
2,140,bCFS,f42887_e_016,0,10,2,1.82769754,1,1
2,141,bCFS,f42887_e_166,1,9,1,1.681599551,1,1
2,142,bCFS,f42887_e_266,1,9,1,1.607722627,1,1
2,143,bCFS,f42887_e_145,1,9,1,2.087759501,1,1
2,144,bCFS,f42887_e_164,1,10,2,2.367760795,1,1
2,145,bCFS,f42887_e_233,1,9,1,2.449049577,1,1
2,146,bCFS,f42887_e_206,0,9,1,1.717571836,1,1
2,147,bCFS,f42887_e_181,1,9,1,4.022693393,1,1
2,148,bCFS,f42887_e_161,1,9,1,2.397856094,1,1
2,149,bCFS,f42887_e_034,1,9,1,1.737795439,1,1
2,150,bCFS,f42887_e_105,1,10,2,2.02637273,1,1
2,151,bCFS,f42887_e_250,0,10,2,1.647795057,1,1
2,152,bCFS,f42887_e_277,0,10,2,1.942460205,1,1
2,153,bCFS,f42887_e_220,0,9,1,1.568051099,1,1
2,154,bCFS,f42887_e_000,1,9,2,1.337607025,0,1
2,155,bCFS,f42887_e_176,0,9,1,1.757783602,1,1
2,156,bCFS,f42887_e_057,0,10,2,1.79926774,1,1
2,157,bCFS,f42887_e_039,0,10,2,2.086632996,1,1
2,158,bCFS,f42887_e_141,1,9,1,1.907925753,1,1
2,159,bCFS,f42887_e_096,0,10,2,1.627684353,1,1
2,160,bCFS,f42887_e_184,1,9,1,1.636388178,1,1
2,161,bCFS,f42887_e_053,1,9,1,2.137703938,1,1
2,162,bCFS,f42887_e_196,0,9,1,1.567705869,1,1
2,163,bCFS,f42887_e_132,1,9,1,1.588006916,1,1
2,164,bCFS,f42887_e_263,1,10,2,1.567815348,1,1
2,165,bCFS,f42887_e_004,1,9,1,2.117734436,1,1
2,166,bCFS,f42887_e_282,1,10,2,1.647783549,1,1
2,167,bCFS,f42887_e_238,0,9,1,2.060462738,1,1
2,168,bCFS,f42887_e_031,0,10,2,1.327972946,1,1
2,169,bCFS,f42887_e_245,0,9,1,2.332796517,1,1
2,170,bCFS,f42887_e_065,0,10,2,3.077477884,1,1
2,171,bCFS,f42887_e_014,0,9,1,2.237814878,1,1
2,172,bCFS,f42887_e_293,0,9,1,1.58657468,1,1
2,173,bCFS,f42887_e_027,1,9,1,2.202557932,1,1
2,174,bCFS,f42887_e_197,0,10,2,1.367734981,1,1
2,175,bCFS,f42887_e_297,1,10,2,0.986612251,1,1
2,176,bCFS,f42887_e_144,1,10,2,1.307871573,1,1
2,177,bCFS,f42887_e_061,1,9,1,1.670773964,1,1
2,178,bCFS,f42887_e_017,1,9,1,2.757355642,1,1
2,179,bCFS,f42887_e_149,0,9,1,1.766392256,1,1
2,180,bCFS,f42887_e_019,1,9,1,2.217479931,1,1
2,181,bCFS,f42887_e_151,1,9,1,4.009345454,1,1
2,182,bCFS,f42887_e_042,0,10,2,2.087350824,1,1
2,183,bCFS,f42887_e_203,1,10,2,1.697605756,1,1
2,184,bCFS,f42887_e_035,0,9,1,1.63658723,1,1
2,185,bCFS,f42887_e_006,1,10,2,1.477703932,1,1
2,186,bCFS,f42887_e_199,0,10,2,1.587463879,1,1
2,187,bCFS,f42887_e_252,1,10,2,1.477711396,1,1
2,188,bCFS,f42887_e_069,1,9,1,1.756723654,1,1
2,189,bCFS,f42887_e_192,1,10,2,1.410535967,1,1
2,190,bCFS,f42887_e_246,0,9,1,1.552812174,1,1
2,191,bCFS,f42887_e_272,0,10,2,1.326405418,1,1
2,192,bCFS,f42887_e_260,0,9,1,1.337820694,1,1
2,193,bCFS,f42887_e_083,0,10,2,1.437471017,1,1
2,194,bCFS,f42887_e_119,0,9,1,1.67047321,1,1
2,195,bCFS,f42887_e_088,1,10,2,1.367699214,1,1
2,196,bCFS,f42887_e_168,1,9,1,1.867604198,1,1
2,197,bCFS,f42887_e_284,0,10,2,1.337638749,1,1
2,198,bCFS,f42887_e_106,0,10,2,1.292847561,1,1
2,199,bCFS,f42887_e_129,0,9,1,2.257913763,1,1
2,200,bCFS,f42887_e_011,1,9,2,1.020469618,0,1
2,201,bCFS,f42887_e_205,0,9,1,2.146863404,1,1
2,202,bCFS,f42887_e_054,0,9,1,1.327835477,1,1
2,203,bCFS,f42887_e_089,0,10,2,1.020923703,1,1
2,204,bCFS,f42887_e_173,0,9,1,1.237814567,1,1
2,205,bCFS,f42887_e_032,1,9,1,1.516549398,1,1
2,206,bCFS,f42887_e_109,1,9,1,1.812536681,1,1
2,207,bCFS,f42887_e_290,0,10,2,1.487544215,1,1
2,208,bCFS,f42887_e_107,0,9,1,1.929365434,1,1
2,209,bCFS,f42887_e_050,1,9,1,1.36789982,1,1
2,210,bCFS,f42887_e_124,0,9,1,1.422607801,1,1
2,211,bCFS,f42887_e_194,1,9,2,1.387667471,0,1
2,212,bCFS,f42887_e_111,0,10,2,1.76783009,1,1
2,213,bCFS,f42887_e_229,0,10,2,1.387669026,1,1
2,214,bCFS,f42887_e_127,1,10,2,2.287453585,1,1
2,215,bCFS,f42887_e_288,1,10,2,2.276357413,1,1
2,216,bCFS,f42887_e_171,1,10,2,1.410551518,1,1
2,217,bCFS,f42887_e_110,1,10,2,1.280426144,1,1
2,218,bCFS,f42887_e_280,0,9,2,1.256589139,0,1
2,219,bCFS,f42887_e_071,1,9,1,3.54640739,1,1
2,220,bCFS,f42887_e_136,1,9,1,1.930453062,1,1
2,221,bCFS,f42887_e_047,1,10,2,2.087941136,1,1
2,222,bCFS,f42887_e_038,1,10,2,1.327814639,1,1
2,223,bCFS,f42887_e_044,0,10,2,1.907710218,1,1
2,224,bCFS,f42887_e_048,1,10,2,1.507830643,1,1
2,225,bCFS,f42887_e_234,1,9,2,1.777404453,0,1
2,226,bCFS,f42887_e_021,0,10,2,1.327378903,1,1
2,227,bCFS,f42887_e_114,0,10,2,2.237490176,1,1
2,228,bCFS,f42887_e_051,0,9,1,1.476448043,1,1
2,229,bCFS,f42887_e_143,1,9,1,1.477790395,1,1
2,230,bCFS,f42887_e_240,0,10,2,1.977653392,1,1
2,231,bCFS,f42887_e_286,1,10,2,1.477780442,1,1
2,232,bCFS,f42887_e_118,0,10,2,1.247995103,1,1
2,233,bCFS,f42887_e_078,1,9,1,2.257727774,1,1
2,234,bCFS,f42887_e_255,0,9,1,1.930503136,1,1
2,235,bCFS,f42887_e_201,1,10,2,2.267911732,1,1
2,236,bCFS,f42887_e_030,1,9,1,3.327636737,1,1
2,237,bCFS,f42887_e_236,0,9,1,1.726582014,1,1
2,238,bCFS,f42887_e_015,0,9,1,1.41063456,1,1
2,239,bCFS,f42887_e_122,1,9,1,1.907430613,1,1
2,240,bCFS,f42887_e_117,1,9,1,1.907668541,1,1
2,241,bCFS,f42887_e_187,0,10,2,1.717574325,1,1
2,242,bCFS,f42887_e_001,0,9,1,1.567595458,1,1
2,243,bCFS,f42887_e_070,1,9,1,1.66918342,1,1
2,244,bCFS,f42887_e_185,1,9,1,1.55173512,1,1
2,245,bCFS,f42887_e_055,0,10,2,1.587761212,1,1
2,246,bCFS,f42887_e_267,0,9,1,1.61781048,1,1
2,247,bCFS,f42887_e_013,0,9,1,1.628092408,1,1
2,248,bCFS,f42887_e_294,0,9,1,1.617709711,1,1
2,249,bCFS,f42887_e_104,1,10,2,1.337793013,1,1
2,250,bCFS,f42887_e_174,0,10,2,1.246732061,1,1
2,251,bCFS,f42887_e_154,0,10,2,1.176582061,1,1
2,252,bCFS,f42887_e_226,0,10,2,1.468037507,1,1
2,253,bCFS,f42887_e_232,1,10,2,2.107778144,1,1
2,254,bCFS,f42887_e_285,1,9,2,1.696606768,0,1
2,255,bCFS,f42887_e_148,1,9,1,1.457362764,1,1
2,256,bCFS,f42887_e_225,1,10,2,1.587702741,1,1
2,257,bCFS,f42887_e_211,0,10,2,1.436614475,1,1
2,258,bCFS,f42887_e_130,1,9,1,1.747784078,1,1
2,259,bCFS,f42887_e_230,0,10,2,1.467886664,1,1
2,260,bCFS,f42887_e_254,0,10,2,1.423173542,1,1
2,261,bCFS,f42887_e_007,1,10,2,1.438047955,1,1
2,262,bCFS,f42887_e_126,1,9,1,1.507449025,1,1
2,263,bCFS,f42887_e_155,0,10,2,1.307573308,1,1
2,264,bCFS,f42887_e_010,1,10,2,1.540800988,1,1
2,265,bCFS,f42887_e_247,1,10,2,1.367659403,1,1
2,266,bCFS,f42887_e_200,0,9,1,1.567475406,1,1
2,267,bCFS,f42887_e_066,1,10,2,1.45764268,1,1
2,268,bCFS,f42887_e_231,0,10,2,1.326486594,1,1
2,269,bCFS,f42887_e_183,0,9,1,1.987668156,1,1
2,270,bCFS,f42887_e_150,1,10,2,1.607623413,1,1
2,271,bCFS,f42887_e_237,1,10,2,1.457943123,1,1
2,272,bCFS,f42887_e_177,1,9,1,2.236440803,1,1
2,273,bCFS,f42887_e_012,0,10,2,1.197513228,1,1
2,274,bCFS,f42887_e_003,1,9,1,2.997781512,1,1
2,275,bCFS,f42887_e_063,0,10,2,1.586309382,1,1
2,276,bCFS,f42887_e_008,0,10,2,1.800755026,1,1
2,277,bCFS,f42887_e_146,0,10,2,1.421558117,1,1
2,278,bCFS,f42887_e_182,1,10,2,1.257772872,1,1
2,279,bCFS,f42887_e_091,1,10,2,1.987821487,1,1
2,280,bCFS,f42887_e_098,1,9,1,1.670310548,1,1
2,281,bCFS,f42887_e_033,0,9,1,1.957867079,1,1
2,282,bCFS,f42887_e_113,0,9,1,2.51761992,1,1
2,283,bCFS,f42887_e_116,1,10,2,1.540625574,1,1
2,284,bCFS,f42887_e_165,1,10,2,1.800668874,1,1
2,285,bCFS,f42887_e_101,0,9,1,2.060355126,1,1
2,286,bCFS,f42887_e_163,0,10,2,1.63766335,1,1
2,287,bCFS,f42887_e_248,1,9,1,1.997861755,1,1
2,288,bCFS,f42887_e_041,0,10,2,1.646461725,1,1
2,289,bCFS,f42887_e_190,1,9,1,2.107345518,1,1
2,290,bCFS,f42887_e_133,1,9,1,2.34765258,1,1
2,291,bCFS,f42887_e_067,1,10,2,1.12652939,1,1
2,292,bCFS,f42887_e_120,1,10,2,1.08755423,1,1
2,293,bCFS,f42887_e_142,0,10,2,1.292650998,1,1
2,294,bCFS,f42887_e_076,1,9,1,1.75652367,1,1
2,295,bCFS,f42887_e_059,1,9,1,1.887596404,1,1
2,296,bCFS,f42887_e_259,0,10,2,3.317546395,1,1
2,297,bCFS,f42887_e_221,0,10,2,2.087726222,1,1
2,298,bCFS,f42887_e_224,1,10,2,1.422497701,1,1
2,299,bCFS,f42887_e_040,0,10,2,1.717949101,1,1
2,300,bCFS,f42887_e_251,1,9,1,1.717758136,1,1
2,301,bCFS,f42887_e_235,1,10,2,1.217807121,1,2
2,302,bCFS,f42887_e_298,0,10,2,1.106464095,1,2
2,303,bCFS,f42887_e_296,0,10,2,1.357844313,1,2
2,304,bCFS,f42887_e_187,0,10,2,1.457882164,1,2
2,305,bCFS,f42887_e_268,1,9,1,1.327557738,1,2
2,306,bCFS,f42887_e_041,0,10,2,1.616418055,1,2
2,307,bCFS,f42887_e_218,1,9,1,1.930653358,1,2
2,308,bCFS,f42887_e_118,0,10,2,1.540482817,1,2
2,309,bCFS,f42887_e_168,1,9,1,1.682854195,1,2
2,310,bCFS,f42887_e_256,0,10,2,1.476445555,1,2
2,311,bCFS,f42887_e_130,1,9,1,2.687349331,1,2
2,312,bCFS,f42887_e_035,0,9,1,1.800872902,1,2
2,313,bCFS,f42887_e_007,1,10,2,1.367767638,1,2
2,314,bCFS,f42887_e_024,1,9,1,1.467646247,1,2
2,315,bCFS,f42887_e_126,1,9,1,1.847776209,1,2
2,316,bCFS,f42887_e_115,0,9,1,2.722773604,1,2
2,317,bCFS,f42887_e_002,1,9,1,2.320356439,1,2
2,318,bCFS,f42887_e_072,0,10,2,1.540191083,1,2
2,319,bCFS,f42887_e_061,1,9,1,1.717691889,1,2
2,320,bCFS,f42887_e_250,0,10,2,1.257664949,1,2
2,321,bCFS,f42887_e_014,0,9,1,1.767637259,1,2
2,322,bCFS,f42887_e_023,0,10,2,1.437980153,1,2
2,323,bCFS,f42887_e_177,1,9,1,1.69780574,1,2
2,324,bCFS,f42887_e_229,0,10,2,1.177422741,1,2
2,325,bCFS,f42887_e_223,0,10,2,1.377599523,1,2
2,326,bCFS,f42887_e_063,0,10,2,1.326547242,1,2
2,327,bCFS,f42887_e_253,1,10,2,1.457495258,1,2
2,328,bCFS,f42887_e_207,1,9,1,2.037445265,1,2
2,329,bCFS,f42887_e_030,1,9,1,1.857771068,1,2
2,330,bCFS,f42887_e_286,1,10,2,1.627716388,1,2
2,331,bCFS,f42887_e_254,0,10,2,1.12749852,1,2
2,332,bCFS,f42887_e_106,0,10,2,1.150345867,1,2
2,333,bCFS,f42887_e_295,0,9,1,1.51786158,1,2
2,334,bCFS,f42887_e_195,1,9,1,2.017270803,1,2
2,335,bCFS,f42887_e_139,1,9,1,1.943063579,1,2
2,336,bCFS,f42887_e_182,1,10,2,1.42167537,1,2
2,337,bCFS,f42887_e_180,0,9,1,1.436776515,1,2
2,338,bCFS,f42887_e_175,0,10,2,1.327410005,1,2
2,339,bCFS,f42887_e_174,0,10,2,1.307567087,1,2
2,340,bCFS,f42887_e_017,1,9,1,2.10767613,1,2
2,341,bCFS,f42887_e_181,1,9,1,2.127448135,1,2
2,342,bCFS,f42887_e_167,0,9,1,1.76742048,1,2
2,343,bCFS,f42887_e_281,0,9,1,1.477733479,1,2
2,344,bCFS,f42887_e_051,0,9,1,1.647725078,1,2
2,345,bCFS,f42887_e_042,0,10,2,1.587696831,1,2
2,346,bCFS,f42887_e_232,1,10,2,1.682983579,1,2
2,347,bCFS,f42887_e_097,1,10,2,1.456754103,1,2
2,348,bCFS,f42887_e_052,0,9,1,1.487366624,1,2
2,349,bCFS,f42887_e_259,0,10,2,1.422593494,1,2
2,350,bCFS,f42887_e_011,1,9,1,1.539344182,1,2
2,351,bCFS,f42887_e_062,0,10,2,1.32775088,1,2
2,352,bCFS,f42887_e_280,0,9,1,1.377538875,1,2
2,353,bCFS,f42887_e_081,1,10,2,1.497683386,1,2
2,354,bCFS,f42887_e_196,0,9,1,1.456415716,1,2
2,355,bCFS,f42887_e_260,0,9,1,1.438028982,1,2
2,356,bCFS,f42887_e_114,0,10,2,1.20766795,1,2
2,357,bCFS,f42887_e_248,1,9,1,1.697893136,1,2
2,358,bCFS,f42887_e_004,1,9,1,1.457522627,1,2
2,359,bCFS,f42887_e_275,1,10,1,1.387896069,0,2
2,360,bCFS,f42887_e_077,0,9,1,1.587763078,1,2
2,361,bCFS,f42887_e_010,1,10,2,1.247754687,1,2
2,362,bCFS,f42887_e_162,1,9,1,1.867412611,1,2
2,363,bCFS,f42887_e_170,0,9,1,1.929986536,1,2
2,364,bCFS,f42887_e_285,1,9,1,1.636622997,1,2
2,365,bCFS,f42887_e_119,0,9,1,1.867503739,1,2
2,366,bCFS,f42887_e_059,1,9,1,1.410593816,1,2
2,367,bCFS,f42887_e_050,1,9,1,1.827771874,1,2
2,368,bCFS,f42887_e_192,1,10,2,1.377803862,1,2
2,369,bCFS,f42887_e_169,0,9,1,1.227649271,1,2
2,370,bCFS,f42887_e_105,1,10,2,1.306884093,1,2
2,371,bCFS,f42887_e_026,1,10,2,1.587737575,1,2
2,372,bCFS,f42887_e_219,1,10,2,1.247923569,1,2
2,373,bCFS,f42887_e_188,0,9,1,1.197638257,1,2
2,374,bCFS,f42887_e_200,0,9,2,1.226448743,0,2
2,375,bCFS,f42887_e_123,0,10,2,1.670634317,1,2
2,376,bCFS,f42887_e_238,0,9,1,1.646325188,1,2
2,377,bCFS,f42887_e_102,1,10,2,1.280936212,1,2
2,378,bCFS,f42887_e_274,1,9,1,1.552793513,1,2
2,379,bCFS,f42887_e_125,0,9,1,1.716706275,1,2
2,380,bCFS,f42887_e_094,1,9,1,2.722428997,1,2
2,381,bCFS,f42887_e_132,1,9,1,1.697721766,1,2
2,382,bCFS,f42887_e_191,1,9,1,1.669391491,1,2
2,383,bCFS,f42887_e_112,0,9,1,1.697869188,1,2
2,384,bCFS,f42887_e_122,1,9,1,1.647792258,1,2
2,385,bCFS,f42887_e_291,1,9,1,1.647665052,1,2
2,386,bCFS,f42887_e_278,1,9,1,1.617723706,1,2
2,387,bCFS,f42887_e_237,1,10,2,1.280485859,1,2
2,388,bCFS,f42887_e_292,1,9,1,1.567855469,1,2
2,389,bCFS,f42887_e_138,1,9,1,1.681502513,1,2
2,390,bCFS,f42887_e_070,1,9,1,1.737708666,1,2
2,391,bCFS,f42887_e_103,0,10,2,1.597773488,1,2
2,392,bCFS,f42887_e_028,1,9,1,2.397800111,1,2
2,393,bCFS,f42887_e_234,1,9,1,1.737814411,1,2
2,394,bCFS,f42887_e_251,1,9,1,1.647645146,1,2
2,395,bCFS,f42887_e_117,1,9,1,2.016665252,1,2
2,396,bCFS,f42887_e_261,0,10,2,2.190457174,1,2
2,397,bCFS,f42887_e_202,0,10,2,1.387560792,1,2
2,398,bCFS,f42887_e_029,1,9,1,1.976380708,1,2
2,399,bCFS,f42887_e_271,1,10,2,1.377512749,1,2
2,400,bCFS,f42887_e_159,0,9,1,1.467830059,1,2
2,401,bCFS,f42887_e_056,0,9,1,2.14529712,1,2
2,402,bCFS,f42887_e_147,1,10,2,1.090456645,1,2
2,403,bCFS,f42887_e_039,0,10,2,1.357978361,1,2
2,404,bCFS,f42887_e_176,0,9,1,1.811544535,1,2
2,405,bCFS,f42887_e_107,0,9,1,2.557433272,1,2
2,406,bCFS,f42887_e_193,1,9,1,1.929769135,1,2
2,407,bCFS,f42887_e_012,0,10,2,1.2919792,1,2
2,408,bCFS,f42887_e_173,0,9,1,1.906599263,1,2
2,409,bCFS,f42887_e_151,1,9,1,1.467837523,1,2
2,410,bCFS,f42887_e_203,1,10,2,1.206569125,1,2
2,411,bCFS,f42887_e_189,1,10,2,1.068016731,1,2
2,412,bCFS,f42887_e_091,1,10,2,1.487496318,1,2
2,413,bCFS,f42887_e_294,0,9,1,1.847655223,1,2
2,414,bCFS,f42887_e_199,0,10,2,1.496471662,1,2
2,415,bCFS,f42887_e_245,0,9,1,1.637356998,1,2
2,416,bCFS,f42887_e_144,1,10,2,1.150338092,1,2
2,417,bCFS,f42887_e_129,0,9,1,1.95779088,1,2
2,418,bCFS,f42887_e_210,0,9,1,1.552494625,1,2
2,419,bCFS,f42887_e_080,1,9,1,2.627707369,1,2
2,420,bCFS,f42887_e_104,1,10,2,1.366601322,1,2
2,421,bCFS,f42887_e_178,1,9,1,1.757786401,1,2
2,422,bCFS,f42887_e_211,0,10,2,1.567818458,1,2
2,423,bCFS,f42887_e_127,1,10,2,1.457693998,1,2
2,424,bCFS,f42887_e_096,0,10,2,1.737762472,1,2
2,425,bCFS,f42887_e_095,0,10,2,1.670344449,1,2
2,426,bCFS,f42887_e_243,0,10,2,1.812759991,1,2
2,427,bCFS,f42887_e_148,1,9,1,2.237622047,1,2
2,428,bCFS,f42887_e_140,1,10,2,1.857432681,1,2
2,429,bCFS,f42887_e_128,1,10,2,1.410277201,1,2
2,430,bCFS,f42887_e_066,1,10,2,1.162799008,1,2
2,431,bCFS,f42887_e_083,0,10,2,1.930722715,1,2
2,432,bCFS,f42887_e_149,0,9,1,1.617791508,1,2
2,433,bCFS,f42887_e_179,0,10,2,1.646406675,1,2
2,434,bCFS,f42887_e_054,0,9,1,1.669488529,1,2
2,435,bCFS,f42887_e_233,1,9,1,2.507425699,1,2
2,436,bCFS,f42887_e_262,1,10,2,1.456254298,1,2
2,437,bCFS,f42887_e_209,0,10,2,2.190776278,1,2
2,438,bCFS,f42887_e_009,0,10,2,1.45751112,1,2
2,439,bCFS,f42887_e_040,0,10,2,1.697894691,1,2
2,440,bCFS,f42887_e_074,0,9,1,2.246528656,1,2
2,441,bCFS,f42887_e_031,0,10,2,1.540474109,1,2
2,442,bCFS,f42887_e_013,0,9,2,1.307505195,0,2
2,443,bCFS,f42887_e_270,0,10,2,1.726464449,1,2
2,444,bCFS,f42887_e_111,0,10,2,1.257701649,1,2
2,445,bCFS,f42887_e_297,1,10,2,1.847411386,1,2
2,446,bCFS,f42887_e_090,1,10,2,1.487772813,1,2
2,447,bCFS,f42887_e_084,0,9,1,1.507765641,1,2
2,448,bCFS,f42887_e_079,0,10,2,1.697727053,1,2
2,449,bCFS,f42887_e_089,0,10,2,1.337744495,1,2
2,450,bCFS,f42887_e_100,0,9,1,2.190728692,1,2
2,451,bCFS,f42887_e_157,1,10,2,1.22644159,1,2
2,452,bCFS,f42887_e_228,1,9,1,1.977531473,1,2
2,453,bCFS,f42887_e_019,1,9,1,2.08758191,1,2
2,454,bCFS,f42887_e_284,0,10,2,1.617510037,1,2
2,455,bCFS,f42887_e_222,0,10,2,1.94266672,1,2
2,456,bCFS,f42887_e_141,1,9,2,2.106065992,0,2
2,457,bCFS,f42887_e_033,0,9,2,1.766629562,0,2
2,458,bCFS,f42887_e_153,0,10,2,1.540675026,1,2
2,459,bCFS,f42887_e_001,0,9,1,2.072762237,1,2
2,460,bCFS,f42887_e_213,0,9,1,1.886570357,1,2
2,461,bCFS,f42887_e_087,1,10,2,1.540695864,1,2
2,462,bCFS,f42887_e_183,0,9,1,1.540446428,1,2
2,463,bCFS,f42887_e_255,0,9,2,1.596325701,0,2
2,464,bCFS,f42887_e_299,0,10,2,1.757568067,1,2
2,465,bCFS,f42887_e_226,0,10,2,1.327766431,1,2
2,466,bCFS,f42887_e_015,0,9,1,1.457749048,1,2
2,467,bCFS,f42887_e_036,1,10,2,1.423041359,1,2
2,468,bCFS,f42887_e_018,0,9,1,1.647211588,1,2
2,469,bCFS,f42887_e_067,1,10,2,1.540466955,1,2
2,470,bCFS,f42887_e_267,0,9,1,2.32041491,1,2
2,471,bCFS,f42887_e_289,0,10,2,1.877694539,1,2
2,472,bCFS,f42887_e_166,1,9,1,1.227792028,1,2
2,473,bCFS,f42887_e_208,1,10,1,1.799183766,0,2
2,474,bCFS,f42887_e_246,0,9,1,2.686362784,1,2
2,475,bCFS,f42887_e_287,1,9,1,1.81315405,1,2
2,476,bCFS,f42887_e_279,0,9,1,1.627732872,1,2
2,477,bCFS,f42887_e_071,1,9,1,1.367474348,1,2
2,478,bCFS,f42887_e_172,1,9,1,1.607577382,1,2
2,479,bCFS,f42887_e_137,0,10,2,2.117678142,1,2
2,480,bCFS,f42887_e_154,0,10,2,1.929294833,1,2
2,481,bCFS,f42887_e_092,1,9,1,1.987662246,1,2
2,482,bCFS,f42887_e_088,1,10,2,1.77808807,1,2
2,483,bCFS,f42887_e_055,0,10,2,1.812816596,1,2
2,484,bCFS,f42887_e_272,0,10,2,1.777658554,1,2
2,485,bCFS,f42887_e_171,1,10,2,1.887544775,1,2
2,486,bCFS,f42887_e_225,1,10,2,1.456596728,1,2
2,487,bCFS,f42887_e_048,1,10,2,1.767721856,1,2
2,488,bCFS,f42887_e_249,0,9,1,1.930335498,1,2
2,489,bCFS,f42887_e_236,0,9,1,1.516621243,1,2
2,490,bCFS,f42887_e_058,0,10,1,1.6475027,0,2
2,491,bCFS,f42887_e_161,1,9,1,1.670731355,1,2
2,492,bCFS,f42887_e_049,0,10,2,1.540521695,1,2
2,493,bCFS,f42887_e_016,0,10,2,1.726533806,1,2
2,494,bCFS,f42887_e_116,1,10,2,1.77736993,1,2
2,495,bCFS,f42887_e_005,1,9,1,1.957954786,1,2
2,496,bCFS,f42887_e_037,0,9,2,1.897667773,0,2
2,497,bCFS,f42887_e_241,0,9,1,1.857851622,1,2
2,498,bCFS,f42887_e_242,1,9,1,1.812927319,1,2
2,499,bCFS,f42887_e_108,0,9,1,1.811621356,1,2
2,500,bCFS,f42887_e_160,1,9,1,2.217618645,1,2
2,501,bCFS,f42887_e_227,0,10,2,1.476941939,1,2
2,502,bCFS,f42887_e_101,0,9,1,1.377431574,1,2
2,503,bCFS,f42887_e_224,1,10,2,1.197742448,1,2
2,504,bCFS,f42887_e_240,0,10,2,1.551513054,1,2
2,505,bCFS,f42887_e_038,1,10,2,1.280702327,1,2
2,506,bCFS,f42887_e_152,0,9,1,1.682435566,1,2
2,507,bCFS,f42887_e_185,1,9,2,1.032798352,0,2
2,508,bCFS,f42887_e_053,1,9,1,1.726455119,1,2
2,509,bCFS,f42887_e_276,0,10,2,1.637834721,1,2
2,510,bCFS,f42887_e_021,0,10,2,1.778145297,1,2
2,511,bCFS,f42887_e_120,1,10,2,1.23657765,1,2
2,512,bCFS,f42887_e_186,0,9,1,2.147779039,1,2
2,513,bCFS,f42887_e_043,1,9,1,1.457806275,1,2
2,514,bCFS,f42887_e_217,1,10,2,1.552855716,1,2
2,515,bCFS,f42887_e_133,1,9,1,1.799586222,1,2
2,516,bCFS,f42887_e_044,0,10,2,1.457397909,1,2
2,517,bCFS,f42887_e_206,0,9,1,1.930589288,1,2
2,518,bCFS,f42887_e_045,0,10,2,1.697783969,1,2
2,519,bCFS,f42887_e_124,0,9,1,1.608075321,1,2
2,520,bCFS,f42887_e_003,1,9,2,1.150400295,0,2
2,521,bCFS,f42887_e_020,0,9,1,1.409045882,1,2
2,522,bCFS,f42887_e_085,1,10,2,1.551512121,1,2
2,523,bCFS,f42887_e_164,1,10,2,1.327633315,1,2
2,524,bCFS,f42887_e_136,1,9,2,1.227732934,0,2
2,525,bCFS,f42887_e_098,1,9,1,2.591530433,1,2
2,526,bCFS,f42887_e_212,1,10,2,1.387339659,1,2
2,527,bCFS,f42887_e_073,1,10,2,1.280866856,1,2
2,528,bCFS,f42887_e_082,0,9,1,1.777824016,1,2
2,529,bCFS,f42887_e_032,1,9,1,1.409418792,1,2
2,530,bCFS,f42887_e_263,1,10,2,1.437640211,1,2
2,531,bCFS,f42887_e_135,0,10,2,1.552799422,1,2
2,532,bCFS,f42887_e_165,1,10,2,1.409245866,1,2
2,533,bCFS,f42887_e_027,1,9,1,2.037715228,1,2
2,534,bCFS,f42887_e_283,0,10,2,1.437563078,1,2
2,535,bCFS,f42887_e_064,0,9,1,1.387849105,1,2
2,536,bCFS,f42887_e_205,0,9,1,1.386629295,1,2
2,537,bCFS,f42887_e_047,1,10,2,1.41041467,1,2
2,538,bCFS,f42887_e_231,0,10,2,1.552896148,1,2
2,539,bCFS,f42887_e_121,1,9,1,1.14926477,1,2
2,540,bCFS,f42887_e_075,1,9,1,2.026406942,1,2
2,541,bCFS,f42887_e_155,0,10,2,1.477454185,1,2
2,542,bCFS,f42887_e_257,0,10,2,1.387937123,1,2
2,543,bCFS,f42887_e_006,1,10,2,1.377712423,1,2
2,544,bCFS,f42887_e_134,0,9,1,1.20787882,1,2
2,545,bCFS,f42887_e_099,0,9,1,1.800629375,1,2
2,546,bCFS,f42887_e_258,1,9,1,1.943079751,1,2
2,547,bCFS,f42887_e_065,0,10,2,1.587651112,1,2
2,548,bCFS,f42887_e_113,0,9,1,2.32041491,1,2
2,549,bCFS,f42887_e_282,1,10,2,1.226468337,1,2
2,550,bCFS,f42887_e_244,1,10,2,1.410474386,1,2
2,551,bCFS,f42887_e_277,0,10,2,1.670701497,1,2
2,552,bCFS,f42887_e_220,0,9,1,1.637814505,1,2
2,553,bCFS,f42887_e_252,1,10,2,1.206539579,1,2
2,554,bCFS,f42887_e_201,1,10,2,1.357806369,1,2
2,555,bCFS,f42887_e_288,1,10,2,1.020104172,1,2
2,556,bCFS,f42887_e_204,1,10,2,1.150239188,1,2
2,557,bCFS,f42887_e_068,0,10,2,1.280671537,1,2
2,558,bCFS,f42887_e_142,0,10,2,1.486327515,1,2
2,559,bCFS,f42887_e_273,0,10,2,1.487737979,1,2
2,560,bCFS,f42887_e_008,0,10,2,3.987847924,1,2
2,561,bCFS,f42887_e_239,0,9,1,1.877528456,1,2
2,562,bCFS,f42887_e_057,0,10,2,1.197781014,1,2
2,563,bCFS,f42887_e_215,1,10,2,1.877576352,1,2
2,564,bCFS,f42887_e_145,1,9,2,2.247335124,0,2
2,565,bCFS,f42887_e_109,1,9,1,1.607708631,1,2
2,566,bCFS,f42887_e_146,0,10,2,1.941441933,1,2
2,567,bCFS,f42887_e_000,1,9,1,1.539379016,1,2
2,568,bCFS,f42887_e_086,1,9,1,1.587477875,1,2
2,569,bCFS,f42887_e_221,0,10,2,1.307994425,1,2
2,570,bCFS,f42887_e_078,1,9,1,1.77659643,1,2
2,571,bCFS,f42887_e_293,0,9,1,1.552591662,1,2
2,572,bCFS,f42887_e_110,1,10,2,1.337718058,1,2
2,573,bCFS,f42887_e_198,0,10,2,1.307859444,1,2
2,574,bCFS,f42887_e_194,1,9,1,1.497708267,1,2
2,575,bCFS,f42887_e_266,1,9,1,1.670559362,1,2
2,576,bCFS,f42887_e_093,0,9,1,1.89773713,1,2
2,577,bCFS,f42887_e_230,0,10,2,1.540708927,1,2
2,578,bCFS,f42887_e_265,1,10,2,1.207395188,1,2
2,579,bCFS,f42887_e_184,1,9,1,1.292758921,1,2
2,580,bCFS,f42887_e_156,1,10,1,2.11760101,0,2
2,581,bCFS,f42887_e_022,0,9,1,1.477833937,1,2
2,582,bCFS,f42887_e_034,1,9,1,1.59771906,1,2
2,583,bCFS,f42887_e_197,0,10,2,1.327468476,1,2
2,584,bCFS,f42887_e_069,1,9,1,1.257736483,1,2
2,585,bCFS,f42887_e_190,1,9,1,1.71762782,1,2
2,586,bCFS,f42887_e_214,1,9,1,1.777805044,1,2
2,587,bCFS,f42887_e_290,0,10,2,1.597626688,1,2
2,588,bCFS,f42887_e_269,1,10,2,1.337695665,1,2
2,589,bCFS,f42887_e_158,1,10,2,1.077630594,1,2
2,590,bCFS,f42887_e_143,1,9,1,1.067571665,1,2
2,591,bCFS,f42887_e_131,1,9,1,2.332886712,1,2
2,592,bCFS,f42887_e_076,1,9,1,1.887587384,1,2
2,593,bCFS,f42887_e_046,1,10,2,1.487723361,1,2
2,594,bCFS,f42887_e_163,0,10,2,1.976474635,1,2
2,595,bCFS,f42887_e_264,0,10,2,1.587513953,1,2
2,596,bCFS,f42887_e_247,1,10,2,1.162888892,1,2
2,597,bCFS,f42887_e_025,0,10,2,1.067842251,1,2
2,598,bCFS,f42887_e_060,0,9,1,1.149515761,1,2
2,599,bCFS,f42887_e_150,1,10,2,1.019502353,1,2
2,600,bCFS,f42887_e_216,0,9,1,1.597423904,1,2
3,1,bCFS,f42887_e_046,1,9,2,0.97690699,0,1
3,2,bCFS,f42887_e_059,0,10,2,1.866768036,1,1
3,3,bCFS,f42887_e_042,1,9,1,1.237527921,1,1
3,4,bCFS,f42887_e_242,0,10,2,1.437719381,1,1
3,5,bCFS,f42887_e_199,1,10,1,1.996571395,0,1
3,6,bCFS,f42887_e_074,0,9,1,1.637817225,1,1
3,7,bCFS,f42887_e_124,0,9,1,1.827677462,1,1
3,8,bCFS,f42887_e_247,0,10,2,1.638023116,1,1
3,9,bCFS,f42887_e_213,1,10,2,2.637586454,1,1
3,10,bCFS,f42887_e_251,1,9,1,2.80773439,1,1
3,11,bCFS,f42887_e_250,1,10,2,2.527884783,1,1
3,12,bCFS,f42887_e_054,0,10,1,2.450335614,0,1
3,13,bCFS,f42887_e_137,0,10,2,2.840268815,1,1
3,14,bCFS,f42887_e_014,0,9,1,1.540210842,1,1
3,15,bCFS,f42887_e_161,0,10,2,1.357613686,1,1
3,16,bCFS,f42887_e_177,1,9,1,2.347617424,1,1
3,17,bCFS,f42887_e_241,1,9,2,0.676663965,0,1
3,18,bCFS,f42887_e_228,0,10,2,0.89043984,1,1
3,19,bCFS,f42887_e_052,0,10,2,2.088016616,1,1
3,20,bCFS,f42887_e_234,1,9,1,1.618068225,1,1
3,21,bCFS,f42887_e_275,0,9,1,2.107768104,1,1
3,22,bCFS,f42887_e_007,1,10,2,2.450169844,1,1
3,23,bCFS,f42887_e_123,1,9,1,1.598085032,1,1
3,24,bCFS,f42887_e_136,0,9,2,0.917797768,0,1
3,25,bCFS,f42887_e_140,1,10,1,2.387647568,0,1
3,26,bCFS,f42887_e_257,1,10,2,2.107448694,1,1
3,27,bCFS,f42887_e_294,0,9,1,2.580355749,1,1
3,28,bCFS,f42887_e_287,0,9,1,1.197864151,1,1
3,29,bCFS,f42887_e_170,1,9,1,1.410375137,1,1
3,30,bCFS,f42887_e_024,0,9,1,1.846729794,1,1
3,31,bCFS,f42887_e_041,0,10,1,1.597860792,0,1
3,32,bCFS,f42887_e_035,1,9,1,1.198090568,1,1
3,33,bCFS,f42887_e_051,0,9,1,2.477626052,1,1
3,34,bCFS,f42887_e_255,1,9,1,1.293085377,1,1
3,35,bCFS,f42887_e_026,0,9,1,1.567899998,1,1
3,36,bCFS,f42887_e_118,0,9,2,0.948047493,0,1
3,37,bCFS,f42887_e_279,0,10,1,1.107931697,0,1
3,38,bCFS,f42887_e_139,1,9,1,2.108011316,1,1
3,39,bCFS,f42887_e_084,1,10,2,2.607586472,1,1
3,40,bCFS,f42887_e_258,1,10,1,0.786762177,0,1
3,41,bCFS,f42887_e_126,1,9,1,1.718049502,1,1
3,42,bCFS,f42887_e_231,0,10,1,1.800592604,0,1
3,43,bCFS,f42887_e_233,1,9,1,1.80032109,1,1
3,44,bCFS,f42887_e_174,1,10,2,2.478092571,1,1
3,45,bCFS,f42887_e_225,1,9,1,1.410442627,1,1
3,46,bCFS,f42887_e_048,0,9,1,1.197909559,1,1
3,47,bCFS,f42887_e_201,0,9,1,2.106707861,1,1
3,48,bCFS,f42887_e_006,0,9,1,1.067839662,1,1
3,49,bCFS,f42887_e_236,0,9,1,1.422937876,1,1
3,50,bCFS,f42887_e_010,1,10,2,2.127829672,1,1
3,51,bCFS,f42887_e_144,0,10,1,1.068112731,0,1
3,52,bCFS,f42887_e_055,1,9,1,1.58776003,1,1
3,53,bCFS,f42887_e_143,0,10,1,1.08790123,0,1
3,54,bCFS,f42887_e_033,1,10,1,5.016192258,0,1
3,55,bCFS,f42887_e_009,0,9,1,1.048038722,1,1
3,56,bCFS,f42887_e_119,0,9,2,0.987874856,0,1
3,57,bCFS,f42887_e_018,0,10,2,2.05912073,1,1
3,58,bCFS,f42887_e_062,0,9,1,1.409294057,1,1
3,59,bCFS,f42887_e_111,0,10,2,1.488105005,1,1
3,60,bCFS,f42887_e_218,1,10,2,2.127883477,1,1
3,61,bCFS,f42887_e_207,0,9,1,2.406660401,1,1
3,62,bCFS,f42887_e_130,0,9,1,1.767970163,1,1
3,63,bCFS,f42887_e_029,0,10,1,1.85754744,0,1
3,64,bCFS,f42887_e_165,0,9,1,2.247716389,1,1
3,65,bCFS,f42887_e_245,1,10,2,1.718063187,1,1
3,66,bCFS,f42887_e_093,1,9,2,1.020113196,0,1
3,67,bCFS,f42887_e_116,1,9,1,2.46154918,1,1
3,68,bCFS,f42887_e_283,1,9,1,1.162969761,1,1
3,69,bCFS,f42887_e_097,1,10,2,2.710373707,1,1
3,70,bCFS,f42887_e_067,1,9,1,1.436594447,1,1
3,71,bCFS,f42887_e_217,1,9,1,1.020579715,1,1
3,72,bCFS,f42887_e_120,0,10,2,2.367969789,1,1
3,73,bCFS,f42887_e_121,1,9,1,1.422946896,1,1
3,74,bCFS,f42887_e_164,1,10,2,2.84060533,1,1
3,75,bCFS,f42887_e_196,0,9,1,1.717915145,1,1
3,76,bCFS,f42887_e_075,1,9,1,1.087823166,1,1
3,77,bCFS,f42887_e_269,0,10,1,0.936762705,0,1
3,78,bCFS,f42887_e_193,1,10,2,2.557658036,1,1
3,79,bCFS,f42887_e_145,0,10,1,2.767885567,0,1
3,80,bCFS,f42887_e_198,0,9,1,1.478208268,1,1
3,81,bCFS,f42887_e_288,0,10,2,1.377891408,1,1
3,82,bCFS,f42887_e_169,0,10,1,1.258095507,0,1
3,83,bCFS,f42887_e_159,1,9,1,1.596594348,1,1
3,84,bCFS,f42887_e_229,0,10,2,1.356354706,1,1
3,85,bCFS,f42887_e_180,0,9,1,1.067996723,1,1
3,86,bCFS,f42887_e_151,0,9,1,1.02055359,1,1
3,87,bCFS,f42887_e_259,1,10,2,2.852986127,1,1
3,88,bCFS,f42887_e_102,1,10,2,3.360316387,1,1
3,89,bCFS,f42887_e_082,1,10,2,2.017863952,1,1
3,90,bCFS,f42887_e_232,0,9,1,2.88771288,1,1
3,91,bCFS,f42887_e_114,0,9,1,1.847645727,1,1
3,92,bCFS,f42887_e_190,1,10,2,2.55754545,1,1
3,93,bCFS,f42887_e_148,0,10,2,2.969995042,1,1
3,94,bCFS,f42887_e_285,0,10,1,2.190217591,0,1
3,95,bCFS,f42887_e_284,1,10,2,2.496393185,1,1
3,96,bCFS,f42887_e_181,1,9,1,1.777548112,1,1
3,97,bCFS,f42887_e_091,1,9,1,2.087680722,1,1
3,98,bCFS,f42887_e_202,1,9,1,1.216740449,1,1
3,99,bCFS,f42887_e_108,1,9,1,1.467750774,1,1
3,100,bCFS,f42887_e_216,0,9,1,2.060684813,1,1
3,101,bCFS,f42887_e_270,1,10,1,1.692278983,0,1
3,102,bCFS,f42887_e_290,1,10,2,1.887748336,1,1
3,103,bCFS,f42887_e_298,0,10,2,2.427837883,1,1
3,104,bCFS,f42887_e_047,1,10,2,1.827858161,1,1
3,105,bCFS,f42887_e_158,1,9,1,2.627504042,1,1
3,106,bCFS,f42887_e_221,0,10,2,3.027604872,1,1
3,107,bCFS,f42887_e_040,0,10,2,4.140187143,1,1
3,108,bCFS,f42887_e_016,0,9,1,3.230261108,1,1
3,109,bCFS,f42887_e_278,1,9,1,1.539435487,1,1
3,110,bCFS,f42887_e_194,0,10,2,1.637596717,1,1
3,111,bCFS,f42887_e_256,1,10,2,1.867819259,1,1
3,112,bCFS,f42887_e_171,0,10,2,1.366761816,1,1
3,113,bCFS,f42887_e_017,0,9,1,1.247504589,1,1
3,114,bCFS,f42887_e_107,0,10,2,1.032773593,1,1
3,115,bCFS,f42887_e_138,0,10,2,2.580508145,1,1
3,116,bCFS,f42887_e_156,1,9,1,1.636492622,1,1
3,117,bCFS,f42887_e_057,0,9,1,1.32807587,1,1
3,118,bCFS,f42887_e_044,1,9,2,2.157747546,0,1
3,119,bCFS,f42887_e_117,1,9,1,2.476638275,1,1
3,120,bCFS,f42887_e_066,0,9,1,1.377717552,1,1
3,121,bCFS,f42887_e_238,0,9,1,1.280444574,1,1
3,122,bCFS,f42887_e_230,1,10,2,1.596858398,1,1
3,123,bCFS,f42887_e_001,1,9,1,1.647979879,1,1
3,124,bCFS,f42887_e_094,1,10,2,2.127701846,1,1
3,125,bCFS,f42887_e_292,1,9,1,1.149660903,1,1
3,126,bCFS,f42887_e_183,1,9,1,1.17809649,1,1
3,127,bCFS,f42887_e_031,1,10,1,1.387749269,0,1
3,128,bCFS,f42887_e_266,0,9,2,1.552972629,0,1
3,129,bCFS,f42887_e_248,0,9,1,2.526554582,1,1
3,130,bCFS,f42887_e_226,1,10,2,2.060266812,1,1
3,131,bCFS,f42887_e_088,1,10,1,1.942996956,0,1
3,132,bCFS,f42887_e_235,1,9,1,1.757497118,1,1
3,133,bCFS,f42887_e_128,0,10,1,3.230348502,0,1
3,134,bCFS,f42887_e_002,0,10,2,1.59841004,1,1
3,135,bCFS,f42887_e_095,0,9,1,1.176720569,1,1
3,136,bCFS,f42887_e_142,0,10,2,1.617788936,1,1
3,137,bCFS,f42887_e_210,1,9,1,1.607763128,1,1
3,138,bCFS,f42887_e_209,1,9,1,1.020212409,1,1
3,139,bCFS,f42887_e_020,1,9,1,2.266474191,1,1
3,140,bCFS,f42887_e_253,1,9,1,1.867876797,1,1
3,141,bCFS,f42887_e_204,1,9,1,1.280155643,1,1
3,142,bCFS,f42887_e_025,1,9,1,0.787990677,1,1
3,143,bCFS,f42887_e_011,1,10,2,0.808206819,1,1
3,144,bCFS,f42887_e_080,1,9,1,1.24787345,1,1
3,145,bCFS,f42887_e_076,1,9,1,1.717851387,1,1
3,146,bCFS,f42887_e_103,1,9,1,2.462810025,1,1
3,147,bCFS,f42887_e_155,0,9,1,1.117933556,1,1
3,148,bCFS,f42887_e_205,0,9,1,1.198001307,1,1
3,149,bCFS,f42887_e_219,1,10,2,2.547843406,1,1
3,150,bCFS,f42887_e_268,1,9,1,1.292828792,1,1
3,151,bCFS,f42887_e_090,1,10,2,1.617856114,1,1
3,152,bCFS,f42887_e_240,1,10,2,1.897743976,1,1
3,153,bCFS,f42887_e_239,0,9,1,2.117768098,1,1
3,154,bCFS,f42887_e_166,1,9,1,1.327813064,1,1
3,155,bCFS,f42887_e_000,1,9,2,0.938024484,0,1
3,156,bCFS,f42887_e_115,0,10,2,2.757764278,1,1
3,157,bCFS,f42887_e_127,0,9,1,1.077753194,1,1
3,158,bCFS,f42887_e_043,1,9,1,1.077969659,1,1
3,159,bCFS,f42887_e_273,1,10,2,1.930260361,1,1
3,160,bCFS,f42887_e_297,1,10,2,1.79927702,1,1
3,161,bCFS,f42887_e_132,1,9,1,1.307642641,1,1
3,162,bCFS,f42887_e_069,1,10,2,1.607702169,1,1
3,163,bCFS,f42887_e_215,0,10,2,3.50152925,1,1
3,164,bCFS,f42887_e_034,0,10,2,2.072490858,1,1
3,165,bCFS,f42887_e_065,0,9,1,1.477926801,1,1
3,166,bCFS,f42887_e_281,0,10,2,1.646418906,1,1
3,167,bCFS,f42887_e_099,0,10,1,2.53769817,0,1
3,168,bCFS,f42887_e_077,1,10,2,2.497837528,1,1
3,169,bCFS,f42887_e_079,1,10,2,1.456561157,1,1
3,170,bCFS,f42887_e_176,0,9,1,1.552273472,1,1
3,171,bCFS,f42887_e_168,0,9,1,1.747646722,1,1
3,172,bCFS,f42887_e_222,1,10,2,1.020307579,1,1
3,173,bCFS,f42887_e_184,0,10,2,1.89790508,1,1
3,174,bCFS,f42887_e_192,1,10,1,1.228021505,0,1
3,175,bCFS,f42887_e_272,1,10,2,1.847550868,1,1
3,176,bCFS,f42887_e_178,1,10,2,1.811786576,1,1
3,177,bCFS,f42887_e_295,1,9,1,1.988054932,1,1
3,178,bCFS,f42887_e_022,0,9,2,0.977639425,0,1
3,179,bCFS,f42887_e_260,0,10,2,2.088090637,1,1
3,180,bCFS,f42887_e_081,0,9,1,2.427623595,1,1
3,181,bCFS,f42887_e_086,0,9,1,1.280797263,1,1
3,182,bCFS,f42887_e_125,0,10,2,1.58797805,1,1
3,183,bCFS,f42887_e_237,1,9,1,2.366392333,1,1
3,184,bCFS,f42887_e_070,0,10,2,2.037709988,1,1
3,185,bCFS,f42887_e_280,1,9,1,2.147898704,1,1
3,186,bCFS,f42887_e_150,1,10,2,1.51656454,1,1
3,187,bCFS,f42887_e_131,0,10,1,2.709946375,0,1
3,188,bCFS,f42887_e_013,0,10,1,1.328175394,0,1
3,189,bCFS,f42887_e_265,1,10,2,1.617718025,1,1
3,190,bCFS,f42887_e_154,1,10,2,3.100124965,1,1
3,191,bCFS,f42887_e_063,1,10,2,2.646553574,1,1
3,192,bCFS,f42887_e_134,1,10,1,2.107428167,0,1
3,193,bCFS,f42887_e_112,0,10,2,2.267790086,1,1
3,194,bCFS,f42887_e_208,0,10,2,1.877900738,1,1
3,195,bCFS,f42887_e_053,0,10,1,2.5278683,0,1
3,196,bCFS,f42887_e_187,0,9,1,1.867895457,1,1
3,197,bCFS,f42887_e_096,1,10,2,1.387782547,1,1
3,198,bCFS,f42887_e_267,0,9,1,2.18973832,1,1
3,199,bCFS,f42887_e_189,1,10,2,2.06065309,1,1
3,200,bCFS,f42887_e_005,0,9,1,1.636638798,1,1
3,201,bCFS,f42887_e_197,0,9,1,1.362776809,1,1
3,202,bCFS,f42887_e_224,0,10,2,3.229271776,1,1
3,203,bCFS,f42887_e_141,0,10,2,1.438277649,1,1
3,204,bCFS,f42887_e_019,0,9,1,1.477882326,1,1
3,205,bCFS,f42887_e_030,0,10,2,1.756839326,1,1
3,206,bCFS,f42887_e_037,1,10,1,2.027824136,0,1
3,207,bCFS,f42887_e_045,1,10,2,1.587635003,1,1
3,208,bCFS,f42887_e_191,1,10,2,1.421736434,1,1
3,209,bCFS,f42887_e_008,1,10,2,1.423007854,1,1
3,210,bCFS,f42887_e_113,0,10,2,2.12786606,1,1
3,211,bCFS,f42887_e_274,1,9,1,1.117931379,1,1
3,212,bCFS,f42887_e_023,0,9,1,1.826450517,1,1
3,213,bCFS,f42887_e_252,1,9,1,1.597409512,1,1
3,214,bCFS,f42887_e_105,1,9,1,1.587848669,1,1
3,215,bCFS,f42887_e_271,0,10,2,1.766587089,1,1
3,216,bCFS,f42887_e_157,1,9,1,1.67002011,1,1
3,217,bCFS,f42887_e_021,1,10,1,2.037799249,0,1
3,218,bCFS,f42887_e_015,0,9,1,1.293008246,1,1
3,219,bCFS,f42887_e_012,0,9,1,1.811723751,1,1
3,220,bCFS,f42887_e_028,1,10,2,3.100592417,1,1
3,221,bCFS,f42887_e_286,0,10,2,2.366642076,1,1
3,222,bCFS,f42887_e_133,0,10,2,2.407845048,1,1
3,223,bCFS,f42887_e_092,1,9,1,1.357798117,1,1
3,224,bCFS,f42887_e_227,0,9,1,1.020347389,1,1
3,225,bCFS,f42887_e_109,1,9,1,1.930925929,1,1
3,226,bCFS,f42887_e_163,1,9,1,1.19761192,1,1
3,227,bCFS,f42887_e_049,1,9,1,1.032841394,1,1
3,228,bCFS,f42887_e_056,0,9,1,1.568110865,1,1
3,229,bCFS,f42887_e_203,0,10,2,3.358812018,1,1
3,230,bCFS,f42887_e_179,1,10,2,2.65789932,1,1
3,231,bCFS,f42887_e_276,1,9,1,1.376672549,1,1
3,232,bCFS,f42887_e_061,1,10,2,3.242626976,1,1
3,233,bCFS,f42887_e_087,1,9,1,1.327886463,1,1
3,234,bCFS,f42887_e_110,1,9,1,0.903140669,1,1
3,235,bCFS,f42887_e_129,1,10,2,1.155449784,1,1
3,236,bCFS,f42887_e_182,0,9,1,1.812966247,1,1
3,237,bCFS,f42887_e_100,0,10,2,1.717407883,1,1
3,238,bCFS,f42887_e_175,1,10,2,2.137722055,1,1
3,239,bCFS,f42887_e_072,0,10,2,2.537462422,1,1
3,240,bCFS,f42887_e_211,0,9,1,1.587862664,1,1
3,241,bCFS,f42887_e_003,1,10,2,1.227756833,1,1
3,242,bCFS,f42887_e_277,0,10,2,2.320521369,1,1
3,243,bCFS,f42887_e_149,1,9,1,1.29318459,1,1
3,244,bCFS,f42887_e_089,0,9,1,1.415632497,1,1
3,245,bCFS,f42887_e_293,0,9,1,1.846735703,1,1
3,246,bCFS,f42887_e_167,0,9,1,1.930128803,1,1
3,247,bCFS,f42887_e_162,0,9,1,1.163275487,1,1
3,248,bCFS,f42887_e_172,1,9,1,1.437892926,1,1
3,249,bCFS,f42887_e_220,1,9,1,2.190049333,1,1
3,250,bCFS,f42887_e_212,1,10,2,2.757589489,1,1
3,251,bCFS,f42887_e_262,0,9,1,1.956521969,1,1
3,252,bCFS,f42887_e_152,0,9,1,1.423002878,1,1
3,253,bCFS,f42887_e_068,0,9,1,1.280728218,1,1
3,254,bCFS,f42887_e_078,1,10,1,1.150427549,0,1
3,255,bCFS,f42887_e_249,1,10,2,1.507957573,1,1
3,256,bCFS,f42887_e_004,0,9,1,1.337782267,1,1
3,257,bCFS,f42887_e_032,1,10,1,1.067735783,0,1
3,258,bCFS,f42887_e_064,1,10,2,1.637847082,1,1
3,259,bCFS,f42887_e_291,1,9,1,1.047953194,1,1
3,260,bCFS,f42887_e_185,0,9,1,1.377579151,1,1
3,261,bCFS,f42887_e_146,0,9,1,1.5182748,1,1
3,262,bCFS,f42887_e_122,0,9,1,1.162923421,1,1
3,263,bCFS,f42887_e_200,1,10,2,1.197843002,1,1
3,264,bCFS,f42887_e_039,1,9,1,2.00758218,1,1
3,265,bCFS,f42887_e_223,0,9,1,1.280500245,1,1
3,266,bCFS,f42887_e_243,0,9,1,1.178030244,1,1
3,267,bCFS,f42887_e_147,0,9,1,1.540601474,1,1
3,268,bCFS,f42887_e_261,1,10,2,1.800413771,1,1
3,269,bCFS,f42887_e_299,0,10,2,1.540642217,1,1
3,270,bCFS,f42887_e_135,0,10,2,2.591541634,1,1
3,271,bCFS,f42887_e_050,1,10,2,1.597558488,1,1
3,272,bCFS,f42887_e_083,1,10,2,1.813096872,1,1
3,273,bCFS,f42887_e_073,0,9,1,1.327737799,1,1
3,274,bCFS,f42887_e_296,0,10,2,2.190525804,1,1
3,275,bCFS,f42887_e_058,0,10,2,1.607614775,1,1
3,276,bCFS,f42887_e_106,0,9,1,1.217871914,1,1
3,277,bCFS,f42887_e_195,1,9,2,1.827879621,0,1
3,278,bCFS,f42887_e_289,1,10,2,1.367769497,1,1
3,279,bCFS,f42887_e_263,0,9,1,1.161634895,1,1
3,280,bCFS,f42887_e_098,1,10,2,1.539245147,1,1
3,281,bCFS,f42887_e_264,1,10,2,2.017554805,1,1
3,282,bCFS,f42887_e_206,0,10,2,2.157992002,1,1
3,283,bCFS,f42887_e_153,0,9,1,1.506531579,1,1
3,284,bCFS,f42887_e_173,1,10,2,1.507853695,1,1
3,285,bCFS,f42887_e_060,0,10,2,1.997559483,1,1
3,286,bCFS,f42887_e_101,1,9,1,1.517668014,1,1
3,287,bCFS,f42887_e_214,0,10,2,1.717448003,1,1
3,288,bCFS,f42887_e_282,1,10,2,1.598202906,1,1
3,289,bCFS,f42887_e_188,0,10,2,1.36770885,1,1
3,290,bCFS,f42887_e_244,1,10,2,0.630405169,1,1
3,291,bCFS,f42887_e_186,1,9,1,0.916679677,1,1
3,292,bCFS,f42887_e_027,1,10,2,1.410638254,1,1
3,293,bCFS,f42887_e_104,1,9,1,0.86791474,1,1
3,294,bCFS,f42887_e_254,0,10,1,1.508170928,0,1
3,295,bCFS,f42887_e_085,0,9,1,2.137841484,1,1
3,296,bCFS,f42887_e_160,1,10,2,1.150744471,1,1
3,297,bCFS,f42887_e_036,1,10,2,1.346451749,1,1
3,298,bCFS,f42887_e_246,1,9,1,1.066703843,1,1
3,299,bCFS,f42887_e_038,0,9,1,1.280198874,1,1
3,300,bCFS,f42887_e_071,1,10,2,1.457754202,1,1
3,301,bCFS,f42887_e_235,1,9,1,2.589587852,1,2
3,302,bCFS,f42887_e_081,0,9,1,1.337894232,1,2
3,303,bCFS,f42887_e_016,0,9,1,1.717923231,1,2
3,304,bCFS,f42887_e_073,0,9,1,1.69799291,1,2
3,305,bCFS,f42887_e_243,0,9,1,1.827553679,1,2
3,306,bCFS,f42887_e_228,0,10,2,1.627647107,1,2
3,307,bCFS,f42887_e_030,0,10,2,1.5177128,1,2
3,308,bCFS,f42887_e_202,1,9,1,1.886465408,1,2
3,309,bCFS,f42887_e_060,0,10,2,1.177605401,1,2
3,310,bCFS,f42887_e_139,1,9,1,1.930378235,1,2
3,311,bCFS,f42887_e_191,1,10,2,2.807676231,1,2
3,312,bCFS,f42887_e_143,0,10,2,2.417585347,1,2
3,313,bCFS,f42887_e_100,0,10,1,1.477988071,0,2
3,314,bCFS,f42887_e_256,1,10,2,1.436805936,1,2
3,315,bCFS,f42887_e_294,0,9,1,1.507430406,1,2
3,316,bCFS,f42887_e_043,1,9,1,1.11790712,1,2
3,317,bCFS,f42887_e_270,1,10,2,1.71787689,1,2
3,318,bCFS,f42887_e_211,0,9,1,0.977833497,1,2
3,319,bCFS,f42887_e_130,0,9,1,1.087663616,1,2
3,320,bCFS,f42887_e_254,0,10,2,1.117955327,1,2
3,321,bCFS,f42887_e_027,1,10,2,1.456607498,1,2
3,322,bCFS,f42887_e_133,0,10,1,2.156883552,0,2
3,323,bCFS,f42887_e_242,0,10,2,1.117733575,1,2
3,324,bCFS,f42887_e_193,1,10,2,2.527497884,1,2
3,325,bCFS,f42887_e_295,1,9,1,1.388175667,1,2
3,326,bCFS,f42887_e_249,1,10,2,2.387841951,1,2
3,327,bCFS,f42887_e_285,0,10,2,1.410209057,1,2
3,328,bCFS,f42887_e_111,0,10,2,2.060477678,1,2
3,329,bCFS,f42887_e_203,0,10,2,2.157468256,1,2
3,330,bCFS,f42887_e_039,1,9,1,1.617572471,1,2
3,331,bCFS,f42887_e_165,0,9,1,1.637881916,1,2
3,332,bCFS,f42887_e_098,1,10,2,1.337500179,1,2
3,333,bCFS,f42887_e_177,1,9,1,1.617650224,1,2
3,334,bCFS,f42887_e_168,0,9,1,1.457616423,1,2
3,335,bCFS,f42887_e_258,1,10,2,1.696909653,1,2
3,336,bCFS,f42887_e_155,0,9,1,2.807882743,1,2
3,337,bCFS,f42887_e_066,0,9,1,1.457768508,1,2
3,338,bCFS,f42887_e_238,0,9,1,1.48792213,1,2
3,339,bCFS,f42887_e_147,0,9,1,1.457924326,1,2
3,340,bCFS,f42887_e_106,0,9,1,1.717845789,1,2
3,341,bCFS,f42887_e_185,0,9,1,1.280459192,1,2
3,342,bCFS,f42887_e_101,1,9,1,1.487764135,1,2
3,343,bCFS,f42887_e_022,0,9,1,1.977462459,1,2
3,344,bCFS,f42887_e_279,0,10,2,1.887870875,1,2
3,345,bCFS,f42887_e_163,1,9,1,1.847734365,1,2
3,346,bCFS,f42887_e_190,1,10,2,1.32790077,1,2
3,347,bCFS,f42887_e_096,1,10,2,1.150112804,1,2
3,348,bCFS,f42887_e_071,1,10,2,3.127874769,1,2
3,349,bCFS,f42887_e_240,1,10,2,4.357234561,1,2
3,350,bCFS,f42887_e_102,1,10,2,1.92912983,1,2
3,351,bCFS,f42887_e_000,1,9,1,1.279104731,1,2
3,352,bCFS,f42887_e_157,1,9,1,2.107546663,1,2
3,353,bCFS,f42887_e_099,0,10,2,2.527758201,1,2
3,354,bCFS,f42887_e_095,0,9,1,1.617444333,1,2
3,355,bCFS,f42887_e_245,1,10,2,2.148154357,1,2
3,356,bCFS,f42887_e_069,1,10,2,1.670497826,1,2
3,357,bCFS,f42887_e_267,0,9,1,1.197924176,1,2
3,358,bCFS,f42887_e_034,0,10,2,2.497554196,1,2
3,359,bCFS,f42887_e_158,1,9,1,1.670542612,1,2
3,360,bCFS,f42887_e_160,1,10,2,1.606400581,1,2
3,361,bCFS,f42887_e_226,1,10,2,1.588165902,1,2
3,362,bCFS,f42887_e_038,0,9,1,1.51796783,1,2
3,363,bCFS,f42887_e_122,0,9,2,1.553123781,0,2
3,364,bCFS,f42887_e_110,1,9,1,1.161665063,1,2
3,365,bCFS,f42887_e_035,1,9,1,1.163016413,1,2
3,366,bCFS,f42887_e_210,1,9,1,0.918125265,1,2
3,367,bCFS,f42887_e_040,0,10,2,1.717883732,1,2
3,368,bCFS,f42887_e_067,1,9,1,1.127698736,1,2
3,369,bCFS,f42887_e_277,0,10,2,1.467535864,1,2
3,370,bCFS,f42887_e_132,1,9,1,0.890049519,1,2
3,371,bCFS,f42887_e_079,1,10,2,2.11784865,1,2
3,372,bCFS,f42887_e_215,0,10,1,1.540521855,0,2
3,373,bCFS,f42887_e_056,0,9,1,1.61813727,1,2
3,374,bCFS,f42887_e_144,0,10,2,1.798872703,1,2
3,375,bCFS,f42887_e_141,0,10,2,1.976815242,1,2
3,376,bCFS,f42887_e_198,0,9,1,1.237949654,1,2
3,377,bCFS,f42887_e_134,1,10,2,1.307660991,1,2
3,378,bCFS,f42887_e_284,1,10,2,1.726569386,1,2
3,379,bCFS,f42887_e_296,0,10,2,1.627698425,1,2
3,380,bCFS,f42887_e_229,0,10,2,1.757790093,1,2
3,381,bCFS,f42887_e_062,0,9,1,1.279203944,1,2
3,382,bCFS,f42887_e_070,0,10,2,1.636563533,1,2
3,383,bCFS,f42887_e_154,1,10,2,1.327546526,1,2
3,384,bCFS,f42887_e_094,1,10,2,1.540084882,1,2
3,385,bCFS,f42887_e_057,0,9,1,1.540818872,1,2
3,386,bCFS,f42887_e_041,0,10,2,2.107869494,1,2
3,387,bCFS,f42887_e_119,0,9,1,1.237824005,1,2
3,388,bCFS,f42887_e_187,0,9,1,1.11820787,1,2
3,389,bCFS,f42887_e_092,1,9,1,1.437956994,1,2
3,390,bCFS,f42887_e_137,0,10,2,1.077838411,1,2
3,391,bCFS,f42887_e_145,0,10,2,1.45738534,1,2
3,392,bCFS,f42887_e_269,0,10,2,2.189031077,1,2
3,393,bCFS,f42887_e_266,0,9,1,1.107969951,1,2
3,394,bCFS,f42887_e_261,1,10,2,1.98772246,1,2
3,395,bCFS,f42887_e_192,1,10,2,2.80796454,1,2
3,396,bCFS,f42887_e_276,1,9,1,1.337963277,1,2
3,397,bCFS,f42887_e_197,0,9,1,1.292866113,1,2
3,398,bCFS,f42887_e_181,1,9,1,2.627528923,1,2
3,399,bCFS,f42887_e_257,1,10,2,1.941621969,1,2
3,400,bCFS,f42887_e_241,1,9,1,1.800270706,1,2
3,401,bCFS,f42887_e_151,0,9,1,1.920056343,1,2
3,402,bCFS,f42887_e_290,1,10,2,1.867841963,1,2
3,403,bCFS,f42887_e_223,0,9,1,2.366504608,1,2
3,404,bCFS,f42887_e_077,1,10,2,2.637725476,1,2
3,405,bCFS,f42887_e_052,0,10,2,1.800205704,1,2
3,406,bCFS,f42887_e_227,0,9,1,1.517965031,1,2
3,407,bCFS,f42887_e_283,1,9,1,1.618012243,1,2
3,408,bCFS,f42887_e_201,0,9,1,1.978110299,1,2
3,409,bCFS,f42887_e_162,0,9,1,2.086727468,1,2
3,410,bCFS,f42887_e_104,1,9,1,1.149907847,1,2
3,411,bCFS,f42887_e_218,1,10,2,1.387591585,1,2
3,412,bCFS,f42887_e_214,0,10,2,2.536953294,1,2
3,413,bCFS,f42887_e_072,0,10,2,1.307564888,1,2
3,414,bCFS,f42887_e_128,0,10,2,2.107898418,1,2
3,415,bCFS,f42887_e_140,1,10,2,2.027842797,1,2
3,416,bCFS,f42887_e_029,0,10,2,1.986484629,1,2
3,417,bCFS,f42887_e_023,0,9,1,1.307975736,1,2
3,418,bCFS,f42887_e_253,1,9,1,1.51778962,1,2
3,419,bCFS,f42887_e_037,1,10,2,2.1378617,1,2
3,420,bCFS,f42887_e_247,0,10,2,2.427502611,1,2
3,421,bCFS,f42887_e_186,1,9,1,2.277488709,1,2
3,422,bCFS,f42887_e_280,1,9,1,1.516547124,1,2
3,423,bCFS,f42887_e_172,1,9,1,1.387559862,1,2
3,424,bCFS,f42887_e_222,1,10,2,1.497534291,1,2
3,425,bCFS,f42887_e_272,1,10,2,1.456560224,1,2
3,426,bCFS,f42887_e_120,0,10,2,2.478010775,1,2
3,427,bCFS,f42887_e_017,0,9,1,2.117597041,1,2
3,428,bCFS,f42887_e_088,1,10,2,2.296585515,1,2
3,429,bCFS,f42887_e_288,0,10,1,1.497785589,0,2
3,430,bCFS,f42887_e_058,0,10,2,1.257591355,1,2
3,431,bCFS,f42887_e_059,0,10,2,2.377716308,1,2
3,432,bCFS,f42887_e_112,0,10,2,1.196680436,1,2
3,433,bCFS,f42887_e_204,1,9,1,1.117807907,1,2
3,434,bCFS,f42887_e_054,0,10,2,1.280599458,1,2
3,435,bCFS,f42887_e_061,1,10,2,2.25777392,1,2
3,436,bCFS,f42887_e_149,1,9,1,1.458016696,1,2
3,437,bCFS,f42887_e_183,1,9,1,1.258208716,1,2
3,438,bCFS,f42887_e_252,1,9,1,1.107612286,1,2
3,439,bCFS,f42887_e_246,1,9,1,0.977815148,1,2
3,440,bCFS,f42887_e_236,0,9,1,1.150419152,1,2
3,441,bCFS,f42887_e_208,0,10,2,1.457980308,1,2
3,442,bCFS,f42887_e_074,0,9,1,1.280427468,1,2
3,443,bCFS,f42887_e_078,1,10,2,2.060371312,1,2
3,444,bCFS,f42887_e_109,1,9,1,1.047742016,1,2
3,445,bCFS,f42887_e_085,0,9,1,2.367812417,1,2
3,446,bCFS,f42887_e_055,1,9,1,1.467795249,1,2
3,447,bCFS,f42887_e_234,1,9,1,1.607723318,1,2
3,448,bCFS,f42887_e_274,1,9,1,2.06029698,1,2
3,449,bCFS,f42887_e_265,1,10,2,1.367905099,1,2
3,450,bCFS,f42887_e_233,1,9,1,2.607755974,1,2
3,451,bCFS,f42887_e_220,1,9,1,1.457755757,1,2
3,452,bCFS,f42887_e_044,1,9,1,1.552907316,1,2
3,453,bCFS,f42887_e_153,0,9,1,1.669300738,1,2
3,454,bCFS,f42887_e_146,0,9,1,1.307572974,1,2
3,455,bCFS,f42887_e_031,1,10,2,2.107915524,1,2
3,456,bCFS,f42887_e_271,0,10,2,2.059260063,1,2
3,457,bCFS,f42887_e_230,1,10,2,2.03731438,1,2
3,458,bCFS,f42887_e_195,1,9,1,1.357594092,1,2
3,459,bCFS,f42887_e_068,0,9,1,1.82655284,1,2
3,460,bCFS,f42887_e_194,0,10,2,2.807901093,1,2
3,461,bCFS,f42887_e_231,0,10,2,1.587546364,1,2
3,462,bCFS,f42887_e_239,0,9,1,1.718070962,1,2
3,463,bCFS,f42887_e_166,1,9,1,1.410457867,1,2
3,464,bCFS,f42887_e_013,0,10,2,2.072956444,1,2
3,465,bCFS,f42887_e_286,0,10,2,1.437808641,1,2
3,466,bCFS,f42887_e_053,0,10,2,2.387782547,1,2
3,467,bCFS,f42887_e_251,1,9,1,1.307634555,1,2
3,468,bCFS,f42887_e_293,0,9,1,1.887637615,1,2
3,469,bCFS,f42887_e_213,1,10,2,1.51692376,1,2
3,470,bCFS,f42887_e_259,1,10,2,1.197591082,1,2
3,471,bCFS,f42887_e_268,1,9,1,1.30784791,1,2
3,472,bCFS,f42887_e_170,1,9,1,1.587882569,1,2
3,473,bCFS,f42887_e_108,1,9,1,1.726816952,1,2
3,474,bCFS,f42887_e_206,0,10,2,1.84755771,1,2
3,475,bCFS,f42887_e_260,0,10,2,2.722553278,1,2
3,476,bCFS,f42887_e_262,0,9,1,1.540494796,1,2
3,477,bCFS,f42887_e_126,1,9,1,1.458132393,1,2
3,478,bCFS,f42887_e_115,0,10,2,1.737703643,1,2
3,479,bCFS,f42887_e_176,0,9,1,1.637823757,1,2
3,480,bCFS,f42887_e_207,0,9,1,1.457909086,1,2
3,481,bCFS,f42887_e_125,0,10,2,2.137563439,1,2
3,482,bCFS,f42887_e_093,1,9,1,3.276598901,1,2
3,483,bCFS,f42887_e_114,0,9,1,2.007651225,1,2
3,484,bCFS,f42887_e_084,1,10,2,2.627790795,1,2
3,485,bCFS,f42887_e_209,1,9,1,1.746596432,1,2
3,486,bCFS,f42887_e_248,0,9,1,1.150343576,1,2
3,487,bCFS,f42887_e_032,1,10,2,2.497440054,1,2
3,488,bCFS,f42887_e_135,0,10,1,1.976644496,0,2
3,489,bCFS,f42887_e_028,1,10,2,2.557779642,1,2
3,490,bCFS,f42887_e_012,0,9,1,1.497873606,1,2
3,491,bCFS,f42887_e_173,1,10,2,2.016424896,1,2
3,492,bCFS,f42887_e_263,0,9,1,2.3209854,1,2
3,493,bCFS,f42887_e_299,0,10,2,1.847754581,1,2
3,494,bCFS,f42887_e_116,1,9,1,1.422984839,1,2
3,495,bCFS,f42887_e_212,1,10,2,1.247598826,1,2
3,496,bCFS,f42887_e_199,1,10,2,2.462621241,1,2
3,497,bCFS,f42887_e_045,1,10,2,2.106492641,1,2
3,498,bCFS,f42887_e_047,1,10,2,1.997735205,1,2
3,499,bCFS,f42887_e_015,0,9,1,1.608226537,1,2
3,500,bCFS,f42887_e_097,1,10,2,1.75661011,1,2
3,501,bCFS,f42887_e_129,1,10,2,1.637806029,1,2
3,502,bCFS,f42887_e_224,0,10,2,1.717750308,1,2
3,503,bCFS,f42887_e_255,1,9,1,1.067853968,1,2
3,504,bCFS,f42887_e_205,0,9,1,1.217891819,1,2
3,505,bCFS,f42887_e_297,1,10,2,1.637851748,1,2
3,506,bCFS,f42887_e_021,1,10,2,2.037978392,1,2
3,507,bCFS,f42887_e_018,0,10,2,1.887464692,1,2
3,508,bCFS,f42887_e_124,0,9,1,1.177692795,1,2
3,509,bCFS,f42887_e_175,1,10,2,2.518119293,1,2
3,510,bCFS,f42887_e_278,1,9,1,1.257879975,1,2
3,511,bCFS,f42887_e_179,1,10,2,1.293101239,1,2
3,512,bCFS,f42887_e_103,1,9,1,1.567693486,1,2
3,513,bCFS,f42887_e_006,0,9,1,1.587791753,1,2
3,514,bCFS,f42887_e_189,1,10,2,1.217789806,1,2
3,515,bCFS,f42887_e_075,1,9,1,1.15043688,1,2
3,516,bCFS,f42887_e_169,0,10,2,1.436730982,1,2
3,517,bCFS,f42887_e_174,1,10,2,1.019640146,1,2
3,518,bCFS,f42887_e_298,0,10,2,1.507712806,1,2
3,519,bCFS,f42887_e_003,1,10,2,1.468181838,1,2
3,520,bCFS,f42887_e_020,1,9,1,1.437911276,1,2
3,521,bCFS,f42887_e_065,0,9,1,1.540468049,1,2
3,522,bCFS,f42887_e_026,0,9,1,1.437666508,1,2
3,523,bCFS,f42887_e_117,1,9,2,1.227656998,0,2
3,524,bCFS,f42887_e_105,1,9,1,2.202776598,1,2
3,525,bCFS,f42887_e_005,0,9,1,1.85755646,1,2
3,526,bCFS,f42887_e_282,1,10,2,1.477695097,1,2
3,527,bCFS,f42887_e_080,1,9,1,1.076712234,1,2
3,528,bCFS,f42887_e_161,0,10,2,1.507762879,1,2
3,529,bCFS,f42887_e_217,1,9,1,1.422989505,1,2
3,530,bCFS,f42887_e_221,0,10,2,1.587974007,1,2
3,531,bCFS,f42887_e_007,1,10,2,2.786403268,1,2
3,532,bCFS,f42887_e_002,0,10,2,2.247640502,1,2
3,533,bCFS,f42887_e_033,1,10,2,2.417475559,1,2
3,534,bCFS,f42887_e_087,1,9,1,1.098009767,1,2
3,535,bCFS,f42887_e_250,1,10,2,1.800214412,1,2
3,536,bCFS,f42887_e_076,1,9,1,1.067723654,1,2
3,537,bCFS,f42887_e_180,0,9,1,1.198135665,1,2
3,538,bCFS,f42887_e_004,0,9,1,2.156562898,1,2
3,539,bCFS,f42887_e_287,0,9,1,1.670363468,1,2
3,540,bCFS,f42887_e_010,1,10,2,2.257732555,1,2
3,541,bCFS,f42887_e_275,0,9,1,2.852814137,1,2
3,542,bCFS,f42887_e_121,1,9,2,1.410516026,0,2
3,543,bCFS,f42887_e_219,1,10,2,1.84661503,1,2
3,544,bCFS,f42887_e_292,1,9,1,1.336497474,1,2
3,545,bCFS,f42887_e_216,0,9,1,1.097720836,1,2
3,546,bCFS,f42887_e_273,1,10,2,1.507948865,1,2
3,547,bCFS,f42887_e_152,0,9,1,2.087913981,1,2
3,548,bCFS,f42887_e_184,0,10,2,1.800188287,1,2
3,549,bCFS,f42887_e_127,0,9,1,1.747751222,1,2
3,550,bCFS,f42887_e_001,1,9,1,1.437865246,1,2
3,551,bCFS,f42887_e_167,0,9,1,2.117688789,1,2
3,552,bCFS,f42887_e_019,0,9,1,2.637811005,1,2
3,553,bCFS,f42887_e_011,1,10,2,1.987686382,1,2
3,554,bCFS,f42887_e_237,1,9,1,1.7579767,1,2
3,555,bCFS,f42887_e_009,0,9,1,1.617940088,1,2
3,556,bCFS,f42887_e_171,0,10,2,2.874272463,1,2
3,557,bCFS,f42887_e_008,1,10,2,3.677624994,1,2
3,558,bCFS,f42887_e_156,1,9,1,1.357852544,1,2
3,559,bCFS,f42887_e_123,1,9,1,1.716600183,1,2
3,560,bCFS,f42887_e_159,1,9,1,1.987892584,1,2
3,561,bCFS,f42887_e_082,1,10,2,1.338248787,1,2
3,562,bCFS,f42887_e_050,1,10,2,1.409231543,1,2
3,563,bCFS,f42887_e_051,0,9,1,2.107794851,1,2
3,564,bCFS,f42887_e_148,0,10,2,1.767814034,1,2
3,565,bCFS,f42887_e_225,1,9,1,1.757914187,1,2
3,566,bCFS,f42887_e_164,1,10,2,2.417775064,1,2
3,567,bCFS,f42887_e_036,1,10,2,3.277740007,1,2
3,568,bCFS,f42887_e_244,1,10,2,3.147641186,1,2
3,569,bCFS,f42887_e_200,1,10,2,2.627555048,1,2
3,570,bCFS,f42887_e_048,0,9,1,2.710045588,1,2
3,571,bCFS,f42887_e_025,1,9,1,1.217765547,1,2
3,572,bCFS,f42887_e_107,0,10,2,2.607709945,1,2
3,573,bCFS,f42887_e_089,0,9,1,1.799245607,1,2
3,574,bCFS,f42887_e_118,0,9,1,1.682978768,1,2
3,575,bCFS,f42887_e_046,1,9,1,1.377790018,1,2
3,576,bCFS,f42887_e_049,1,9,1,1.206674832,1,2
3,577,bCFS,f42887_e_136,0,9,1,1.409174006,1,2
3,578,bCFS,f42887_e_281,0,10,2,1.17793694,1,2
3,579,bCFS,f42887_e_232,0,9,1,1.540699132,1,2
3,580,bCFS,f42887_e_063,1,10,2,1.670638403,1,2
3,581,bCFS,f42887_e_138,0,10,2,1.907810837,1,2
3,582,bCFS,f42887_e_289,1,10,2,1.347865302,1,2
3,583,bCFS,f42887_e_131,0,10,2,2.332881017,1,2
3,584,bCFS,f42887_e_014,0,9,1,1.348075546,1,2
3,585,bCFS,f42887_e_024,0,9,1,1.997602091,1,2
3,586,bCFS,f42887_e_113,0,10,2,2.138137879,1,2
3,587,bCFS,f42887_e_182,0,9,1,1.293089421,1,2
3,588,bCFS,f42887_e_083,1,10,2,3.0180291,1,2
3,589,bCFS,f42887_e_042,1,9,1,1.280270096,1,2
3,590,bCFS,f42887_e_064,1,10,2,1.293045879,1,2
3,591,bCFS,f42887_e_291,1,9,1,2.190444008,1,2
3,592,bCFS,f42887_e_150,1,10,2,1.682973792,1,2
3,593,bCFS,f42887_e_178,1,10,2,1.8476958,1,2
3,594,bCFS,f42887_e_142,0,10,2,1.540301969,1,2
3,595,bCFS,f42887_e_091,1,9,1,1.42309245,1,2
3,596,bCFS,f42887_e_188,0,10,2,1.942790444,1,2
3,597,bCFS,f42887_e_264,1,10,2,2.319215116,1,2
3,598,bCFS,f42887_e_196,0,9,1,1.357763283,1,2
3,599,bCFS,f42887_e_086,0,9,1,1.670595173,1,2
3,600,bCFS,f42887_e_090,1,10,2,1.929227177,1,2
4,1,bCFS,f42887_e_026,0,10,2,1.878582627,1,1
4,2,bCFS,f42887_e_086,1,10,2,1.459042514,1,1
4,3,bCFS,f42887_e_240,0,10,2,1.26909037,1,1
4,4,bCFS,f42887_e_065,1,10,2,1.530697393,1,1
4,5,bCFS,f42887_e_273,1,9,2,1.068991964,0,1
4,6,bCFS,f42887_e_228,1,9,1,1.860528173,1,1
4,7,bCFS,f42887_e_148,0,9,1,2.098853503,1,1
4,8,bCFS,f42887_e_288,0,10,2,1.509141214,1,1
4,9,bCFS,f42887_e_219,1,10,2,1.658870335,1,1
4,10,bCFS,f42887_e_058,0,9,1,1.119021931,1,1
4,11,bCFS,f42887_e_137,0,9,1,2.080762971,1,1
4,12,bCFS,f42887_e_052,1,9,1,1.249073718,1,1
4,13,bCFS,f42887_e_117,1,9,1,1.569068941,1,1
4,14,bCFS,f42887_e_197,0,9,1,1.819006349,1,1
4,15,bCFS,f42887_e_129,0,10,2,1.779121711,1,1
4,16,bCFS,f42887_e_094,1,10,2,2.138975757,1,1
4,17,bCFS,f42887_e_159,1,10,2,1.469133103,1,1
4,18,bCFS,f42887_e_000,0,9,1,1.970446055,1,1
4,19,bCFS,f42887_e_080,1,9,1,1.509049465,1,1
4,20,bCFS,f42887_e_237,0,9,1,1.818947256,1,1
4,21,bCFS,f42887_e_156,0,10,2,1.39900842,1,1
4,22,bCFS,f42887_e_122,1,10,2,2.039205069,1,1
4,23,bCFS,f42887_e_089,0,9,1,2.489187388,1,1
4,24,bCFS,f42887_e_135,1,9,1,1.530785411,1,1
4,25,bCFS,f42887_e_118,0,9,1,1.42093844,1,1
4,26,bCFS,f42887_e_265,0,9,1,2.158783407,1,1
4,27,bCFS,f42887_e_235,0,10,2,1.539141466,1,1
4,28,bCFS,f42887_e_212,0,9,1,2.359191272,1,1
4,29,bCFS,f42887_e_066,1,10,2,1.598781503,1,1
4,30,bCFS,f42887_e_183,0,9,1,2.300951117,1,1
4,31,bCFS,f42887_e_259,1,10,2,1.599064527,1,1
4,32,bCFS,f42887_e_143,0,9,1,2.4488863,1,1
4,33,bCFS,f42887_e_208,1,9,1,1.568790271,1,1
4,34,bCFS,f42887_e_246,1,10,2,1.82888607,1,1
4,35,bCFS,f42887_e_138,0,9,1,1.48894915,1,1
4,36,bCFS,f42887_e_035,1,9,1,1.420781688,1,1
4,37,bCFS,f42887_e_290,1,10,2,1.489029703,1,1
4,38,bCFS,f42887_e_019,1,10,2,1.978799312,1,1
4,39,bCFS,f42887_e_242,1,10,2,1.279027939,1,1
4,40,bCFS,f42887_e_036,1,10,2,1.228833135,1,1
4,41,bCFS,f42887_e_097,1,9,1,1.398952748,1,1
4,42,bCFS,f42887_e_084,1,10,2,1.898957258,1,1
4,43,bCFS,f42887_e_020,0,10,2,1.459072682,1,1
4,44,bCFS,f42887_e_146,0,10,2,1.449029989,1,1
4,45,bCFS,f42887_e_165,1,10,2,1.60895389,1,1
4,46,bCFS,f42887_e_147,1,10,2,1.559155319,1,1
4,47,bCFS,f42887_e_047,1,10,2,1.750762999,1,1
4,48,bCFS,f42887_e_187,0,9,1,2.630696056,1,1
4,49,bCFS,f42887_e_224,0,10,2,1.82927826,1,1
4,50,bCFS,f42887_e_283,1,9,1,1.970814298,1,1
4,51,bCFS,f42887_e_120,1,9,1,1.719086373,1,1
4,52,bCFS,f42887_e_277,0,10,2,2.13912038,1,1
4,53,bCFS,f42887_e_091,1,10,2,2.198934585,1,1
4,54,bCFS,f42887_e_251,1,10,2,1.860372976,1,1
4,55,bCFS,f42887_e_201,1,10,2,1.559018161,1,1
4,56,bCFS,f42887_e_194,1,9,1,1.339190793,1,1
4,57,bCFS,f42887_e_133,1,9,1,1.970735922,1,1
4,58,bCFS,f42887_e_139,1,10,2,2.098912285,1,1
4,59,bCFS,f42887_e_244,0,10,2,1.998905847,1,1
4,60,bCFS,f42887_e_033,0,10,2,2.088917489,1,1
4,61,bCFS,f42887_e_220,1,10,2,1.428924698,1,1
4,62,bCFS,f42887_e_073,0,9,1,2.080808068,1,1
4,63,bCFS,f42887_e_102,1,9,1,1.399108256,1,1
4,64,bCFS,f42887_e_202,1,10,2,1.478953731,1,1
4,65,bCFS,f42887_e_271,0,10,2,2.099205573,1,1
4,66,bCFS,f42887_e_004,1,10,2,1.42068434,1,1
4,67,bCFS,f42887_e_063,1,10,2,1.329064437,1,1
4,68,bCFS,f42887_e_140,0,10,2,1.78902538,1,1
4,69,bCFS,f42887_e_270,1,9,1,1.489127673,1,1
4,70,bCFS,f42887_e_081,0,9,1,2.159228781,1,1
4,71,bCFS,f42887_e_185,1,9,1,1.57920836,1,1
4,72,bCFS,f42887_e_013,0,9,1,2.08108736,1,1
4,73,bCFS,f42887_e_071,0,10,2,1.669210048,1,1
4,74,bCFS,f42887_e_049,1,10,2,2.548778595,1,1
4,75,bCFS,f42887_e_279,0,9,1,1.798787537,1,1
4,76,bCFS,f42887_e_176,0,10,2,1.719068645,1,1
4,77,bCFS,f42887_e_003,1,9,1,1.049060842,1,1
4,78,bCFS,f42887_e_014,1,9,1,1.28921059,1,1
4,79,bCFS,f42887_e_126,0,10,2,1.530688374,1,1
4,80,bCFS,f42887_e_163,1,10,2,1.67908697,1,1
4,81,bCFS,f42887_e_272,1,9,1,1.368976134,1,1
4,82,bCFS,f42887_e_296,1,10,2,1.33904275,1,1
4,83,bCFS,f42887_e_229,1,9,1,1.530549661,1,1
4,84,bCFS,f42887_e_130,0,10,2,1.569063342,1,1
4,85,bCFS,f42887_e_172,1,9,1,1.349085443,1,1
4,86,bCFS,f42887_e_077,0,9,1,2.850688573,1,1
4,87,bCFS,f42887_e_287,0,10,2,1.878958023,1,1
4,88,bCFS,f42887_e_006,0,9,1,1.420420599,1,1
4,89,bCFS,f42887_e_189,0,10,2,1.129065246,1,1
4,90,bCFS,f42887_e_171,1,9,1,1.928682883,1,1
4,91,bCFS,f42887_e_269,1,9,1,1.789125216,1,1
4,92,bCFS,f42887_e_043,1,9,1,2.129217332,1,1
4,93,bCFS,f42887_e_040,0,9,1,3.918985106,1,1
4,94,bCFS,f42887_e_205,0,10,2,1.818704353,1,1
4,95,bCFS,f42887_e_128,0,10,2,1.269202024,1,1
4,96,bCFS,f42887_e_223,0,9,1,2.129088883,1,1
4,97,bCFS,f42887_e_203,1,10,2,2.758970389,1,1
4,98,bCFS,f42887_e_275,1,9,1,1.200646726,1,1
4,99,bCFS,f42887_e_001,0,9,1,1.319058755,1,1
4,100,bCFS,f42887_e_247,1,9,1,1.319184405,1,1
4,101,bCFS,f42887_e_103,1,10,2,1.698629945,1,1
4,102,bCFS,f42887_e_289,0,9,1,1.448857997,1,1
4,103,bCFS,f42887_e_070,1,10,2,1.219024325,1,1
4,104,bCFS,f42887_e_114,0,9,1,2.478816262,1,1
4,105,bCFS,f42887_e_149,1,10,2,2.158871113,1,1
4,106,bCFS,f42887_e_127,0,9,1,2.319083014,1,1
4,107,bCFS,f42887_e_249,0,9,1,2.868845974,1,1
4,108,bCFS,f42887_e_074,0,10,2,1.998856707,1,1
4,109,bCFS,f42887_e_192,0,10,2,1.328784212,1,1
4,110,bCFS,f42887_e_154,1,9,1,1.47937609,1,1
4,111,bCFS,f42887_e_045,1,10,2,2.190729683,1,1
4,112,bCFS,f42887_e_260,0,10,2,1.359034832,1,1
4,113,bCFS,f42887_e_069,0,10,2,2.048929282,1,1
4,114,bCFS,f42887_e_158,0,9,1,1.86097759,1,1
4,115,bCFS,f42887_e_088,0,9,1,1.640701738,1,1
4,116,bCFS,f42887_e_160,0,10,2,1.099219569,1,1
4,117,bCFS,f42887_e_276,1,10,2,1.56876259,1,1
4,118,bCFS,f42887_e_195,0,9,1,1.359099212,1,1
4,119,bCFS,f42887_e_256,1,10,2,1.548963649,1,1
4,120,bCFS,f42887_e_067,1,9,1,1.200985422,1,1
4,121,bCFS,f42887_e_266,1,9,1,1.828891046,1,1
4,122,bCFS,f42887_e_105,1,9,1,1.289093648,1,1
4,123,bCFS,f42887_e_012,1,9,1,1.421111675,1,1
4,124,bCFS,f42887_e_104,0,10,2,1.618981343,1,1
4,125,bCFS,f42887_e_051,1,9,1,1.618933447,1,1
4,126,bCFS,f42887_e_162,0,10,2,1.668972433,1,1
4,127,bCFS,f42887_e_258,0,10,2,1.420397895,1,1
4,128,bCFS,f42887_e_217,0,10,2,1.530485281,1,1
4,129,bCFS,f42887_e_252,0,10,2,1.310848566,1,1
4,130,bCFS,f42887_e_028,0,9,1,1.33878865,1,1
4,131,bCFS,f42887_e_141,1,10,2,1.77929619,1,1
4,132,bCFS,f42887_e_068,1,10,2,1.679228482,1,1
4,133,bCFS,f42887_e_142,1,10,2,1.378861453,1,1
4,134,bCFS,f42887_e_152,0,9,1,1.649147988,1,1
4,135,bCFS,f42887_e_173,1,10,2,1.750716969,1,1
4,136,bCFS,f42887_e_255,0,9,1,2.108919523,1,1
4,137,bCFS,f42887_e_175,0,10,2,1.569155714,1,1
4,138,bCFS,f42887_e_134,1,9,1,1.229055511,1,1
4,139,bCFS,f42887_e_209,0,10,2,1.459297546,1,1
4,140,bCFS,f42887_e_023,1,9,1,1.539013017,1,1
4,141,bCFS,f42887_e_115,0,9,1,2.319099498,1,1
4,142,bCFS,f42887_e_182,1,9,1,1.339146007,1,1
4,143,bCFS,f42887_e_213,0,9,1,1.479084047,1,1
4,144,bCFS,f42887_e_056,0,10,2,1.420729437,1,1
4,145,bCFS,f42887_e_281,1,10,2,2.929154383,1,1
4,146,bCFS,f42887_e_132,1,10,2,1.708889727,1,1
4,147,bCFS,f42887_e_075,0,10,2,1.530766128,1,1
4,148,bCFS,f42887_e_098,0,10,2,1.530639233,1,1
4,149,bCFS,f42887_e_144,0,9,1,1.860534082,1,1
4,150,bCFS,f42887_e_234,0,10,2,1.549068773,1,1
4,151,bCFS,f42887_e_017,1,10,2,1.948767025,1,1
4,152,bCFS,f42887_e_011,1,10,2,1.509057862,1,1
4,153,bCFS,f42887_e_039,0,10,2,1.559103379,1,1
4,154,bCFS,f42887_e_181,1,9,1,2.33905208,1,1
4,155,bCFS,f42887_e_188,1,10,2,1.999154349,1,1
4,156,bCFS,f42887_e_161,0,9,1,1.200650769,1,1
4,157,bCFS,f42887_e_299,1,10,2,1.478988565,1,1
4,158,bCFS,f42887_e_170,0,9,1,2.878924122,1,1
4,159,bCFS,f42887_e_169,0,9,1,2.42874151,1,1
4,160,bCFS,f42887_e_284,1,9,1,1.339078206,1,1
4,161,bCFS,f42887_e_083,1,9,1,1.32880816,1,1
4,162,bCFS,f42887_e_108,0,10,2,1.541080337,1,1
4,163,bCFS,f42887_e_125,1,9,1,1.169085176,1,1
4,164,bCFS,f42887_e_227,0,10,2,1.509159253,1,1
4,165,bCFS,f42887_e_124,1,9,1,1.310531019,1,1
4,166,bCFS,f42887_e_282,1,10,2,1.119080091,1,1
4,167,bCFS,f42887_e_218,1,9,1,1.530623683,1,1
4,168,bCFS,f42887_e_222,1,9,1,1.86078445,1,1
4,169,bCFS,f42887_e_018,1,10,2,2.668804795,1,1
4,170,bCFS,f42887_e_184,0,9,1,2.1189053,1,1
4,171,bCFS,f42887_e_207,0,9,1,3.658991009,1,1
4,172,bCFS,f42887_e_029,0,10,2,2.109013449,1,1
4,173,bCFS,f42887_e_232,1,10,2,1.758966657,1,1
4,174,bCFS,f42887_e_022,0,9,1,1.970663455,1,1
4,175,bCFS,f42887_e_072,0,9,1,1.668908674,1,1
4,176,bCFS,f42887_e_168,0,10,2,1.448987069,1,1
4,177,bCFS,f42887_e_021,1,9,1,1.978880487,1,1
4,178,bCFS,f42887_e_225,1,9,1,1.719124939,1,1
4,179,bCFS,f42887_e_082,0,9,1,1.860713227,1,1
4,180,bCFS,f42887_e_061,0,10,2,1.530310179,1,1
4,181,bCFS,f42887_e_243,0,10,2,1.530139431,1,1
4,182,bCFS,f42887_e_253,1,9,1,1.059229807,1,1
4,183,bCFS,f42887_e_291,1,10,2,0.998978003,1,1
4,184,bCFS,f42887_e_150,1,10,2,1.459026652,1,1
4,185,bCFS,f42887_e_238,1,10,2,1.659052591,1,1
4,186,bCFS,f42887_e_211,0,10,2,2.138987576,1,1
4,187,bCFS,f42887_e_007,1,10,2,2.038924844,1,1
4,188,bCFS,f42887_e_293,1,9,1,1.558952537,1,1
4,189,bCFS,f42887_e_180,0,9,1,1.349130851,1,1
4,190,bCFS,f42887_e_002,0,10,2,2.049114336,1,1
4,191,bCFS,f42887_e_093,0,9,1,2.209080224,1,1
4,192,bCFS,f42887_e_010,0,9,1,1.648989681,1,1
4,193,bCFS,f42887_e_155,1,10,2,1.699029289,1,1
4,194,bCFS,f42887_e_034,1,9,1,1.329126329,1,1
4,195,bCFS,f42887_e_064,0,10,2,1.420403493,1,1
4,196,bCFS,f42887_e_221,0,9,1,2.789004853,1,1
4,197,bCFS,f42887_e_198,0,9,1,1.659085869,1,1
4,198,bCFS,f42887_e_274,0,10,2,1.819276932,1,1
4,199,bCFS,f42887_e_099,0,9,1,1.909013014,1,1
4,200,bCFS,f42887_e_044,0,9,1,2.028919784,1,1
4,201,bCFS,f42887_e_031,1,9,1,1.348529969,1,1
4,202,bCFS,f42887_e_298,0,10,2,1.208728466,1,1
4,203,bCFS,f42887_e_015,0,10,2,1.31031704,1,1
4,204,bCFS,f42887_e_286,0,10,2,1.310422785,1,1
4,205,bCFS,f42887_e_153,1,10,2,1.288939384,1,1
4,206,bCFS,f42887_e_016,0,10,2,1.310745308,1,1
4,207,bCFS,f42887_e_087,0,10,2,1.249111662,1,1
4,208,bCFS,f42887_e_107,0,9,1,2.018957644,1,1
4,209,bCFS,f42887_e_191,1,10,2,1.479197256,1,1
4,210,bCFS,f42887_e_032,1,10,2,1.158896927,1,1
4,211,bCFS,f42887_e_106,1,10,2,1.049056488,1,1
4,212,bCFS,f42887_e_216,0,9,1,1.359130624,1,1
4,213,bCFS,f42887_e_263,1,10,2,1.338994543,1,1
4,214,bCFS,f42887_e_145,0,9,1,4.90888332,1,1
4,215,bCFS,f42887_e_261,0,9,1,1.479041438,1,1
4,216,bCFS,f42887_e_285,0,9,1,1.42028935,1,1
4,217,bCFS,f42887_e_254,1,9,1,1.318895472,1,1
4,218,bCFS,f42887_e_250,1,9,1,1.239129617,1,1
4,219,bCFS,f42887_e_236,0,10,2,1.329003478,1,1
4,220,bCFS,f42887_e_210,0,9,1,2.318971049,1,1
4,221,bCFS,f42887_e_295,0,9,1,1.659041394,1,1
4,222,bCFS,f42887_e_239,0,9,1,2.918723853,1,1
4,223,bCFS,f42887_e_268,1,9,1,1.4488863,1,1
4,224,bCFS,f42887_e_151,0,10,1,1.548893671,0,1
4,225,bCFS,f42887_e_136,1,9,1,1.35903421,1,1
4,226,bCFS,f42887_e_112,1,10,2,1.530842638,1,1
4,227,bCFS,f42887_e_109,0,10,2,1.640754922,1,1
4,228,bCFS,f42887_e_027,0,9,1,0.958944077,1,1
4,229,bCFS,f42887_e_110,1,9,1,1.379027535,1,1
4,230,bCFS,f42887_e_085,1,9,1,1.549053533,1,1
4,231,bCFS,f42887_e_174,1,9,1,1.399162684,1,1
4,232,bCFS,f42887_e_206,0,10,2,1.479061965,1,1
4,233,bCFS,f42887_e_199,0,9,1,1.378867673,1,1
4,234,bCFS,f42887_e_054,1,10,2,1.339022534,1,1
4,235,bCFS,f42887_e_164,0,9,1,1.640561781,1,1
4,236,bCFS,f42887_e_297,0,9,1,1.499176897,1,1
4,237,bCFS,f42887_e_038,0,9,1,1.458988086,1,1
4,238,bCFS,f42887_e_121,1,9,1,1.668697806,1,1
4,239,bCFS,f42887_e_196,0,10,2,1.420748098,1,1
4,240,bCFS,f42887_e_005,1,9,1,1.399075911,1,1
4,241,bCFS,f42887_e_204,1,10,2,1.489041833,1,1
4,242,bCFS,f42887_e_267,0,9,1,2.459044069,1,1
4,243,bCFS,f42887_e_092,1,10,2,1.229066086,1,1
4,244,bCFS,f42887_e_055,1,9,1,1.379174334,1,1
4,245,bCFS,f42887_e_179,1,10,2,1.359176344,1,1
4,246,bCFS,f42887_e_215,0,10,2,1.860589754,1,1
4,247,bCFS,f42887_e_226,1,9,1,1.339043061,1,1
4,248,bCFS,f42887_e_041,1,9,1,1.678888231,1,1
4,249,bCFS,f42887_e_248,0,10,2,1.578679322,1,1
4,250,bCFS,f42887_e_059,1,9,1,1.5489792,1,1
4,251,bCFS,f42887_e_111,0,9,1,1.568870513,1,1
4,252,bCFS,f42887_e_292,1,9,1,1.310476591,1,1
4,253,bCFS,f42887_e_048,1,9,1,1.488920225,1,1
4,254,bCFS,f42887_e_062,0,10,2,1.388896682,1,1
4,255,bCFS,f42887_e_257,0,10,2,1.539085173,1,1
4,256,bCFS,f42887_e_024,0,10,2,0.729162345,1,1
4,257,bCFS,f42887_e_050,0,10,2,1.530912305,1,1
4,258,bCFS,f42887_e_278,0,10,2,1.420709221,1,1
4,259,bCFS,f42887_e_095,1,9,1,1.608689527,1,1
4,260,bCFS,f42887_e_186,0,10,2,1.530555259,1,1
4,261,bCFS,f42887_e_177,0,10,2,1.530558369,1,1
4,262,bCFS,f42887_e_280,0,10,2,1.349039413,1,1
4,263,bCFS,f42887_e_101,0,10,2,1.719213578,1,1
4,264,bCFS,f42887_e_076,1,10,2,1.439175149,1,1
4,265,bCFS,f42887_e_100,1,10,2,1.679110918,1,1
4,266,bCFS,f42887_e_157,0,10,2,2.658670974,1,1
4,267,bCFS,f42887_e_167,1,9,1,1.588983268,1,1
4,268,bCFS,f42887_e_262,1,10,2,1.539046918,1,1
4,269,bCFS,f42887_e_233,1,9,1,1.310791028,1,1
4,270,bCFS,f42887_e_178,0,10,2,1.509007789,1,1
4,271,bCFS,f42887_e_131,1,10,2,1.860505158,1,1
4,272,bCFS,f42887_e_245,0,9,1,2.308896321,1,1
4,273,bCFS,f42887_e_230,1,10,2,1.530844815,1,1
4,274,bCFS,f42887_e_060,0,10,2,1.229025342,1,1
4,275,bCFS,f42887_e_008,1,10,2,1.21920627,1,1
4,276,bCFS,f42887_e_025,0,10,2,1.269137955,1,1
4,277,bCFS,f42887_e_078,0,10,2,1.828813292,1,1
4,278,bCFS,f42887_e_264,1,10,2,1.310715451,1,1
4,279,bCFS,f42887_e_009,0,10,2,1.200492773,1,1
4,280,bCFS,f42887_e_046,0,9,1,1.229141662,1,1
4,281,bCFS,f42887_e_214,0,10,2,1.609158538,1,1
4,282,bCFS,f42887_e_096,0,9,1,1.669270385,1,1
4,283,bCFS,f42887_e_037,0,9,1,1.979104729,1,1
4,284,bCFS,f42887_e_123,1,9,1,1.559082541,1,1
4,285,bCFS,f42887_e_231,0,10,2,1.970673408,1,1
4,286,bCFS,f42887_e_294,1,9,1,1.750665029,1,1
4,287,bCFS,f42887_e_079,1,10,2,1.799022043,1,1
4,288,bCFS,f42887_e_090,0,10,2,1.598946652,1,1
4,289,bCFS,f42887_e_116,0,9,1,1.488843094,1,1
4,290,bCFS,f42887_e_190,0,10,2,1.099027983,1,1
4,291,bCFS,f42887_e_053,0,9,1,2.520318803,1,1
4,292,bCFS,f42887_e_042,0,10,2,1.489123319,1,1
4,293,bCFS,f42887_e_200,0,9,1,1.248998141,1,1
4,294,bCFS,f42887_e_241,1,9,1,1.15893456,1,1
4,295,bCFS,f42887_e_030,1,9,1,1.278827956,1,1
4,296,bCFS,f42887_e_119,1,10,2,1.448939484,1,1
4,297,bCFS,f42887_e_057,0,9,1,1.530906707,1,1
4,298,bCFS,f42887_e_113,0,9,1,1.879041375,1,1
4,299,bCFS,f42887_e_193,1,9,1,1.918927258,1,1
4,300,bCFS,f42887_e_166,0,10,2,1.868991218,1,1
4,301,bCFS,f42887_e_220,1,10,2,1.828371339,1,2
4,302,bCFS,f42887_e_186,0,10,2,1.289114797,1,2
4,303,bCFS,f42887_e_276,1,10,2,1.497918528,1,2
4,304,bCFS,f42887_e_171,1,9,1,1.219186987,1,2
4,305,bCFS,f42887_e_091,1,10,2,1.458787792,1,2
4,306,bCFS,f42887_e_097,1,9,1,1.668931378,1,2
4,307,bCFS,f42887_e_043,1,9,1,2.778922972,1,2
4,308,bCFS,f42887_e_037,0,9,1,1.589172988,1,2
4,309,bCFS,f42887_e_204,1,10,2,1.379104667,1,2
4,310,bCFS,f42887_e_172,1,9,1,1.249010893,1,2
4,311,bCFS,f42887_e_152,0,9,2,1.899311816,0,2
4,312,bCFS,f42887_e_080,1,9,1,1.449105566,1,2
4,313,bCFS,f42887_e_244,0,10,2,1.658945912,1,2
4,314,bCFS,f42887_e_232,1,10,2,1.709051144,1,2
4,315,bCFS,f42887_e_233,1,9,1,1.420474716,1,2
4,316,bCFS,f42887_e_117,1,9,1,1.200782018,1,2
4,317,bCFS,f42887_e_008,1,10,2,1.248956776,1,2
4,318,bCFS,f42887_e_139,1,10,2,1.149227453,1,2
4,319,bCFS,f42887_e_150,1,10,2,1.118981499,1,2
4,320,bCFS,f42887_e_234,0,10,2,1.248870314,1,2
4,321,bCFS,f42887_e_100,1,10,2,1.239132416,1,2
4,322,bCFS,f42887_e_257,0,10,2,1.898797396,1,2
4,323,bCFS,f42887_e_173,1,10,2,1.468986615,1,2
4,324,bCFS,f42887_e_207,0,9,1,2.279281106,1,2
4,325,bCFS,f42887_e_096,0,9,1,1.530424322,1,2
4,326,bCFS,f42887_e_110,1,9,1,1.448854887,1,2
4,327,bCFS,f42887_e_275,1,9,1,1.358958322,1,2
4,328,bCFS,f42887_e_053,0,9,1,1.379061125,1,2
4,329,bCFS,f42887_e_265,0,9,1,2.609077674,1,2
4,330,bCFS,f42887_e_182,1,9,1,1.049026941,1,2
4,331,bCFS,f42887_e_016,0,10,2,1.46920868,1,2
4,332,bCFS,f42887_e_168,0,10,2,1.339021601,1,2
4,333,bCFS,f42887_e_143,0,9,1,2.190724707,1,2
4,334,bCFS,f42887_e_266,1,9,1,1.59898584,1,2
4,335,bCFS,f42887_e_195,0,9,1,2.779091853,1,2
4,336,bCFS,f42887_e_224,0,10,2,1.640935,1,2
4,337,bCFS,f42887_e_177,0,10,2,1.508853525,1,2
4,338,bCFS,f42887_e_014,1,9,1,1.69897144,1,2
4,339,bCFS,f42887_e_175,0,10,2,1.439111702,1,2
4,340,bCFS,f42887_e_034,1,9,1,3.070538334,1,2
4,341,bCFS,f42887_e_021,1,9,1,1.319116915,1,2
4,342,bCFS,f42887_e_051,1,9,1,1.398960213,1,2
4,343,bCFS,f42887_e_192,0,10,2,1.438834276,1,2
4,344,bCFS,f42887_e_261,0,9,1,1.67889383,1,2
4,345,bCFS,f42887_e_263,1,10,2,2.659085869,1,2
4,346,bCFS,f42887_e_264,1,10,2,1.348872086,1,2
4,347,bCFS,f42887_e_202,1,10,2,1.278824846,1,2
4,348,bCFS,f42887_e_214,0,10,2,1.919299232,1,2
4,349,bCFS,f42887_e_031,1,9,1,1.568945778,1,2
4,350,bCFS,f42887_e_038,0,9,1,2.67897967,1,2
4,351,bCFS,f42887_e_293,1,9,1,1.679185873,1,2
4,352,bCFS,f42887_e_069,0,10,2,2.328971754,1,2
4,353,bCFS,f42887_e_226,1,9,1,0.98895366,1,2
4,354,bCFS,f42887_e_064,0,10,2,1.310826172,1,2
4,355,bCFS,f42887_e_144,0,9,2,0.719068334,0,2
4,356,bCFS,f42887_e_198,0,9,1,1.698977661,1,2
4,357,bCFS,f42887_e_185,1,9,1,1.239226654,1,2
4,358,bCFS,f42887_e_153,1,10,2,1.469186287,1,2
4,359,bCFS,f42887_e_147,1,10,2,1.929045527,1,2
4,360,bCFS,f42887_e_078,0,10,2,1.499118426,1,2
4,361,bCFS,f42887_e_218,1,9,1,1.750819915,1,2
4,362,bCFS,f42887_e_210,0,9,1,1.669136338,1,2
4,363,bCFS,f42887_e_239,0,9,1,1.679075774,1,2
4,364,bCFS,f42887_e_123,1,9,1,1.60903973,1,2
