fade_in_time,stimulus_alpha,fade_out_length,trial_index,animation_performance,button_pressed,within_ITI,bProblem,timing_post_trial,question,time_elapsed,stimulus_side,sProblem,internal_node_id,key_press,rt,responses,Trial,uniqueid,timing_response,reverse,acc,trial_type,trial_began,success,stimulus,train_repeats,fade_out_time,Subject
1,0.4,5,0,"{u'stim_duration': [0, None], u'mond_duration': [119, 183], u'nums': [0, 1]}",,900,1,100,,9567,0,0,0.0-0.0-0.0,-1,-1,,1,A10CQS8GH2W418:3ATTHHXXWB6XLREDH9LMR6LBWY1IXM,4,,0,bRMS-test,1531842145019,,../static/images/m193.jpg,1,15,1
1,0.4,5,1,"{u'stim_duration': [0, None], u'mond_duration': [95, 205], u'nums': [0, 1]}",,900,1,100,,18666,0,0,0.0-0.0-1.0,-1,-1,,2,A10CQS8GH2W418:3ATTHHXXWB6XLREDH9LMR6LBWY1IXM,4,,0,bRMS-test,1531842155064,,../static/images/m167.jpg,1,15,1
1,0.4,5,2,"{u'stim_duration': [None], u'mond_duration': [217], u'nums': [0]}",,900,0,100,,27457,1,0,0.0-0.0-2.0,-1,-1,,3,A10CQS8GH2W418:3ATTHHXXWB6XLREDH9LMR6LBWY1IXM,4,,0,bRMS-test,1531842163627,,../static/images/m179.jpg,1,15,1
,,,3,,,,,,,37426,,,0.0-2.0,,,,4,A10CQS8GH2W418:3ATTHHXXWB6XLREDH9LMR6LBWY1IXM,,,,fullscreen,,True,,1,,1
,,,4,,,,,,,43034,,,0.0-3.0-0.0,32,5602,,5,A10CQS8GH2W418:3ATTHHXXWB6XLREDH9LMR6LBWY1IXM,,,,html-keyboard-response,,,"[u""<div class='center'>Welcome to the study!<br>     <p>Your participation will help us investigate human precision and reaction-times in dynamic environments.</p>    <p>Please read the instructions carefully.</p>    <p align='center'><i>Press the space bar to continue.</i></p></div>""]",1,,1
,,,5,,,,,,,68193,,,0.0-3.0-1.0,32,25156,,6,A10CQS8GH2W418:3ATTHHXXWB6XLREDH9LMR6LBWY1IXM,,,,html-keyboard-response,,,"[u""<div class='center'><p>We will begin by calibrating the experiment       for the size of your screen.</p>      <p>After this short calibration, we will continue to the main task for       this study.</p>      <p align='center'><i>Press the space bar to continue.</i></p></div>""]",1,,1
,,,6,,,,,,,71783,,,0.0-3.0-2.0,32,3587,,7,A10CQS8GH2W418:3ATTHHXXWB6XLREDH9LMR6LBWY1IXM,,,,html-keyboard-response,,,"[u""<div class='center'><p>For the calibration stage, you will need a coin.</p>      <p>Any US coin will do.</p>      <p align='center'><i>Press the space bar to continue.</i></p></div>""]",1,,1
,,,7,,,,,,,81559,,,0.0-3.0-3.0,32,9776,,8,A10CQS8GH2W418:3ATTHHXXWB6XLREDH9LMR6LBWY1IXM,,,,html-keyboard-response,,,"[u""<div class='center'><img src='/static/images/coin_demo.jpg' height='400'></img>      <p>You will be asked to position the coin      as shown in the picture. You will place it against your screen,      within an empty circle presented to you.</p>      <p align='center'><i>Press the space bar to continue.</i></p></div>""]",1,,1
,,,8,,,,,,,83167,,,0.0-3.0-4.0,32,1605,,9,A10CQS8GH2W418:3ATTHHXXWB6XLREDH9LMR6LBWY1IXM,,,,html-keyboard-response,,,"[u""<div class='center'><p>Using the up and down arrow keys,       you will then adjust the size of the empty circle, so that it matches the       size of your coin.</p>      <p align='center'><i>Press the space bar to continue.</i></p></div>""]",1,,1
,,,9,,,,,,,85719,,,0.0-3.0-5.0,32,2550,,10,A10CQS8GH2W418:3ATTHHXXWB6XLREDH9LMR6LBWY1IXM,,,,html-keyboard-response,,,"[u""<div class='center'><p>Take your time in doing so, as this measurement      will be used throughout the study to make sure images are presented to       you in their correct size.</p>      <p>When you are done adjusting the circle size, press the space bar to       continue to the main task.      <p align='center'><i>Press the space bar to continue.</i></p></div>""]",1,,1
,,,10,,,,,,,86855,,,0.0-3.0-6.0,32,1135,,11,A10CQS8GH2W418:3ATTHHXXWB6XLREDH9LMR6LBWY1IXM,,,,html-keyboard-response,,,"[u""<div class='center'><p>Please have a coin at hand.</p>      <p>Press the space bar to start the calibration stage.</p></div>""]",1,,1
,,,11,,2,,,,,98928,,,0.0-4.0-0.0-0.0,,12068,,12,A10CQS8GH2W418:3ATTHHXXWB6XLREDH9LMR6LBWY1IXM,,,,html-button-response,,,"Using the mouse, select the coin you would like to use:",1,,1
,,,12,,,,,,,106176,,,0.0-4.0-0.0-1.0-0.0,32,7176,,13,A10CQS8GH2W418:3ATTHHXXWB6XLREDH9LMR6LBWY1IXM,,,,html-keyboard-response,,,"<svg style=""block: inline"" width=""800"" height=""300"">  <circle cx=""200"" cy=""214.186"" r=""35.814"" stroke=""black"" stroke-width=""2"" fill=""grey"" />  <line x1=""0"" y1=""250"" x2=""1000"" y2=""250"" style=""stroke:black;stroke-width:2"" />  <image x=""564.186"" y=""178.372"" width=""71.628"" height=""71.628"" style:""block: inline"" xlink:href=""/static/images/Dime.png""></image>    <circle cx=""600"" cy=""214.186"" r=""35.814"" stroke=""black"" stroke-width=""2"" fill-opacity=""0"" /></svg>",1,,1
,,,13,,,,,,,109095,,,0.0-4.0-1.0,32,2911,,14,A10CQS8GH2W418:3ATTHHXXWB6XLREDH9LMR6LBWY1IXM,,,,html-keyboard-response,,,"<svg style=""block: inline"" width=""800"" height=""300"">  <circle cx=""200"" cy=""214.186"" r=""35.814"" stroke=""red"" stroke-width=""2"" fill=""grey"" />  <line x1=""0"" y1=""250"" x2=""1000"" y2=""250"" style=""stroke:red;stroke-width:2"" />  <image x=""564.186"" y=""178.372"" width=""71.628"" height=""71.628"" style:""block: inline"" xlink:href=""/static/images/Dime.png""></image>    <circle cx=""600"" cy=""214.186"" r=""35.814"" stroke=""red"" stroke-width=""2"" fill-opacity=""0"" /></svg>",1,,1
,,,14,,,,,,,110143,,,0.0-5.0-0.0,32,1045,,15,A10CQS8GH2W418:3ATTHHXXWB6XLREDH9LMR6LBWY1IXM,,,,html-keyboard-response,,,"[u""<p>We will now continue to the main task.</p>    <p align='center'><i>Press the space bar to continue.</i></p>""]",1,,1
,,,15,,,,,,,110663,,,0.0-5.0-1.0,32,518,,16,A10CQS8GH2W418:3ATTHHXXWB6XLREDH9LMR6LBWY1IXM,,,,html-keyboard-response,,,"[u""<div class = 'center'><p>You will be presented with rapidly       changing patterns of rectangles. Through these rectangles, male faces will appear. Your task will be to indicate the location of       the faces, or any part of them, as soon as they appear.</p>      <p align='center'><i>Press the space bar to continue.</i></p></div>""]",1,,1
,,,16,,,,,,,111095,,,0.0-5.0-2.0,32,429,,17,A10CQS8GH2W418:3ATTHHXXWB6XLREDH9LMR6LBWY1IXM,,,,html-keyboard-response,,,"[u""<div class = 'center'><p>If a man's face appeared in the right half       of the screen, press the right key. If a man's face appeared in the left half       of the screen, press the left key.</p>      <p align='center'><i>Press the space bar to continue.</i></p></div>""]",1,,1
,,,17,,,,,,,111463,,,0.0-5.0-3.0,32,366,,18,A10CQS8GH2W418:3ATTHHXXWB6XLREDH9LMR6LBWY1IXM,,,,html-keyboard-response,,,"[u""<div class = 'center'><p>Please perform this task as accurately       and quickly as you can.</p>      <p align='center'><i>Press the space bar to continue.</i></p></div>""]",1,,1
,,,18,,,,,,,111824,,,0.0-5.0-4.0,32,359,,19,A10CQS8GH2W418:3ATTHHXXWB6XLREDH9LMR6LBWY1IXM,,,,html-keyboard-response,,,"[u""<div class = 'center'><p>During the task, please focus your gaze at       the plus sign in the middle.<br>Even though the faces appear to the left        and right of the plus sign, it is important that you look at the plus         sign at all times.</p>        <p align='center'></i>Press the space bar to continue.</i></p></div>""]",1,,1
,,,19,,,,,,,124216,,,0.0-5.0-5.0,75,12389,,20,A10CQS8GH2W418:3ATTHHXXWB6XLREDH9LMR6LBWY1IXM,,,,html-keyboard-response,,,"[u""<div class='center'>      <img src='/static/images/keys.jpg'></img>      <p>Place your fingers on the 'D' and 'K' keys as shown in the picture,       and press either one of these keys to continue.</p></div>""]",1,,1
,,,20,,,,,,,124221,,,0.0-6.0-0.0,,,,21,A10CQS8GH2W418:3ATTHHXXWB6XLREDH9LMR6LBWY1IXM,,,,html-keyboard-response,,,,1,,1
,,,46,,,,,,,313583,,,0.0-7.0-0.0,75,2357,,22,A10CQS8GH2W418:3ATTHHXXWB6XLREDH9LMR6LBWY1IXM,,,,html-keyboard-response,,,"[u""<div class = 'center'><p>You have completed the practice block.</p>  <p>You will now continue with the same task. The task may now be more   difficult.  You will have 3 short breaks. </p>    <p>Press either the 'D' or the 'K' keys to continue.</p></div>""]",1,,1
,,,47,,,,,,,315744,,,0.0-7.0-1.0,75,2158,,23,A10CQS8GH2W418:3ATTHHXXWB6XLREDH9LMR6LBWY1IXM,,,,html-keyboard-response,,,"[u""<div class = 'center'><p>During the task, please focus your gaze at   the plus sign in the middle.<br>Even though the faces appear to the left    and right of the plus sign, it is important that you look at the plus     sign at all times.</p>    <p>Press either the 'D' or the 'K' keys to continue.</p></div>""]",1,,1
,,,98,,,,,,,630920,,,0.0-8.0-100.0,32,12290,,24,A10CQS8GH2W418:3ATTHHXXWB6XLREDH9LMR6LBWY1IXM,,,,html-keyboard-response,,,"[u""<div class = 'center'><p>This is a break.</p>  <p>Press the space bar to continue.</p>""]",1,,1
,,,149,,,,,,,947345,,,0.0-8.0-202.0,32,41921,,25,A10CQS8GH2W418:3ATTHHXXWB6XLREDH9LMR6LBWY1IXM,,,,html-keyboard-response,,,"[u""<div class = 'center'><p>This is a break.</p>  <p>Press the space bar to continue.</p>""]",1,,1
,,,200,,,,,,,1201573,,,0.0-8.0-304.0,32,1437,,26,A10CQS8GH2W418:3ATTHHXXWB6XLREDH9LMR6LBWY1IXM,,,,html-keyboard-response,,,"[u""<div class = 'center'><p>This is a break.</p>  <p>Press the space bar to continue.</p>""]",1,,1
,,,251,,,,,,,1438262,,,0.0-9.0,32,4327,,27,A10CQS8GH2W418:3ATTHHXXWB6XLREDH9LMR6LBWY1IXM,,,,html-keyboard-response,,,"<div class='center'>You have completed this part of the study.    <p>You will now answer several questions. Please answer them sincerely,     we remind you that your answers are completely annonymous.</p>    <p align='center'><i>Press the space bar to continue.</i></p></div>",1,,1
,,,252,,,,,,,1455440,,,0.0-10.0,,17120,"{""Q0"":""27"",""Q1"":""yes""}",28,A10CQS8GH2W418:3ATTHHXXWB6XLREDH9LMR6LBWY1IXM,,,,survey-text,,,,1,,1
,,,253,,,,,,,1464490,,,0.0-11.0,,8817,"{""Q0"":""Male"",""Q1"":""Right"",""Q2"":""Yes""}",29,A10CQS8GH2W418:3ATTHHXXWB6XLREDH9LMR6LBWY1IXM,,,,survey-multi-choice,,,,1,,1
,,,254,,,,,,,1469246,,,0.0-12.0,,4608,"{""Q0"":4}",30,A10CQS8GH2W418:3ATTHHXXWB6XLREDH9LMR6LBWY1IXM,,,,survey-likert,,,,1,,1
,,,255,,,,,,,1477632,,,0.0-13.0,,8295,"{""Q0"":""no""}",31,A10CQS8GH2W418:3ATTHHXXWB6XLREDH9LMR6LBWY1IXM,,,,survey-text,,,,1,,1
,,,256,,,,,,,1486632,,,0.0-14.0,,8987,"{""Q0"":""Heterosexual or straight"",""Q1"":""Only attracted to females""}",32,A10CQS8GH2W418:3ATTHHXXWB6XLREDH9LMR6LBWY1IXM,,,,survey-multi-choice,,,,1,,1
,,,257,,,,,,,1489023,,,0.0-15.0,32,2388,,33,A10CQS8GH2W418:3ATTHHXXWB6XLREDH9LMR6LBWY1IXM,,,,html-keyboard-response,,,"<div class='center'><p>You will now be presented with a few more statements.	Please read each statement carfully, and indicate the degree to which you agree or disagree with it.</p>    <p>We remind you that your answers are completely annonymous.</p>    <p align='center'><i>Press the space bar to continue.</i></p></div>",1,,1
,,,258,,,,,,Affirmative action,1492304,,,0.0-16.0,,3277,"{""Q0"":5}",34,A10CQS8GH2W418:3ATTHHXXWB6XLREDH9LMR6LBWY1IXM,,True,,survey-likert,,,,1,,1
,,,259,,,,,,Iraq,1494967,,,0.0-17.0,,2660,"{""Q0"":5}",35,A10CQS8GH2W418:3ATTHHXXWB6XLREDH9LMR6LBWY1IXM,,True,,survey-likert,,,,1,,1
,,,260,,,,,,Stem Cell,1497784,,,0.0-18.0,,2813,"{""Q0"":5}",36,A10CQS8GH2W418:3ATTHHXXWB6XLREDH9LMR6LBWY1IXM,,True,,survey-likert,,,,1,,1
,,,261,,,,,,Abortion,1500023,,,0.0-19.0,,2237,"{""Q0"":5}",37,A10CQS8GH2W418:3ATTHHXXWB6XLREDH9LMR6LBWY1IXM,,True,,survey-likert,,,,1,,1
,,,262,,,,,,Environment laws,1502583,,,0.0-20.0,,2556,"{""Q0"":5}",38,A10CQS8GH2W418:3ATTHHXXWB6XLREDH9LMR6LBWY1IXM,,False,,survey-likert,,,,1,,1
,,,263,,,,,,Death penalty,1506063,,,0.0-21.0,,3476,"{""Q0"":6}",39,A10CQS8GH2W418:3ATTHHXXWB6XLREDH9LMR6LBWY1IXM,,False,,survey-likert,,,,1,,1
,,,264,,,,,,Homosexuals,1508472,,,0.0-22.0,,2403,"{""Q0"":5}",40,A10CQS8GH2W418:3ATTHHXXWB6XLREDH9LMR6LBWY1IXM,,True,,survey-likert,,,,1,,1
,,,265,,,,,,Gun control,1512247,,,0.0-23.0,,3773,"{""Q0"":6}",41,A10CQS8GH2W418:3ATTHHXXWB6XLREDH9LMR6LBWY1IXM,,True,,survey-likert,,,,1,,1
,,,266,,,,,,,1516318,,,0.0-24.0,,4067,"{""Q0"":""Yes""}",42,A10CQS8GH2W418:3ATTHHXXWB6XLREDH9LMR6LBWY1IXM,,,,survey-multi-choice,,,,1,,1
,,,267,,,,,,,1519518,,,0.0-25.0-0.0,,3160,"{""Q0"":5}",43,A10CQS8GH2W418:3ATTHHXXWB6XLREDH9LMR6LBWY1IXM,,,,survey-likert,,,,1,,1
,,,268,,,,,,,1527110,,,0.0-25.0-1.0,,7589,"{""Q0"":""0""}",44,A10CQS8GH2W418:3ATTHHXXWB6XLREDH9LMR6LBWY1IXM,,,,survey-text,,,,1,,1
,,,269,,,,,,,1532855,,,0.0-26.0,,5742,"{""Q0"":""0""}",45,A10CQS8GH2W418:3ATTHHXXWB6XLREDH9LMR6LBWY1IXM,,,,survey-text,,,,1,,1
,,,270,,,,,,,1540719,,,0.0-27.0,32,7863,,46,A10CQS8GH2W418:3ATTHHXXWB6XLREDH9LMR6LBWY1IXM,,,,html-keyboard-response,,,"<div class=""center"">Thank you for participating in this study!<p>    In this study we were interested in examining reaction-times and     precision in a dynamic environment.</p>    <p>Once you press the space bar, your results will be uploaded to the     server, and the HIT will complete. <b>This may take several minutes - do not     refresh or close your browser during this time.</b></p>    <p>Press the space bar to complete this HIT.</p></div>",1,,1
1,0.4,5,0,"{u'stim_duration': [33, 36, 48, 33, 33, 39, 33, 33, 33, 34, 32, 34, 34, 33, 33, 32, 33, 33, 32, 32, 33, 33, 33, 33, 34, 30, 33, 33, 33, 33, 32, 33, 33, 36, 24, 32, 33, 33, 34, None], u'mond_duration': [24, 66, 65, 51, 67, 66, 62, 67, 67, 67, 67, 67, 66, 66, 68, 67, 67, 67, 68, 68, 67, 67, 67, 67, 67, 69, 67, 67, 67, 67, 68, 67, 67, 67, 73, 68, 67, 67, 67, 66], u'nums': [0, 1, 2, 3, 4, 5, 6, 7, 8, 9, 10, 11, 12, 13, 14, 15, 16, 17, 18, 19, 20, 21, 22, 23, 24, 25, 26, 27, 28, 29, 30, 31, 32, 33, 34, 35, 36, 37, 38, 39]}",,900,0,100,,9444,0,0,0.0-0.0-0.0,-1,-1,,1,A10T81KGJV05UD:3WMOAN2SRCFXV3K9EAXW8TK73DZNVZ,4,,0,bRMS-test,1531986556244,,../static/images/f179.jpg,1,15,2
1,0.4,5,1,"{u'stim_duration': [37, 33, 33, 34, 33, 36, 31, 31, 33, 35, 33, 33, 33, 33, 33, 32, 33, 34, 34, 32, 33, 33, 33, 33, 33, 33, 33, 33, 33, 34, 33, 33, 32, 33, 34, 33, 33, 34, 33, None], u'mond_duration': [57, 67, 67, 68, 66, 67, 67, 69, 69, 65, 63, 67, 67, 67, 67, 68, 67, 66, 66, 67, 68, 67, 67, 67, 67, 67, 67, 67, 67, 66, 67, 67, 67, 68, 66, 66, 68, 66, 67, 67], u'nums': [0, 1, 2, 3, 4, 5, 6, 7, 8, 9, 10, 11, 12, 13, 14, 15, 16, 17, 18, 19, 20, 21, 22, 23, 24, 25, 26, 27, 28, 29, 30, 31, 32, 33, 34, 35, 36, 37, 38, 39]}",,900,0,100,,17713,0,0,0.0-0.0-1.0,-1,-1,,2,A10T81KGJV05UD:3WMOAN2SRCFXV3K9EAXW8TK73DZNVZ,4,,0,bRMS-test,1531986565815,,../static/images/f043.jpg,1,15,2
1,0.4,5,2,"{u'stim_duration': [33, 34, 33, 34, 33, 33, 32, 33, 33, 32, 32, 33, 33, 33, 33, 31, 31, 32, 32, 31, 32, 33, 32, 35, 32, 32, 31, 33, 32, 34, 32, 33, 35, 33, 35, 33, 34, 34, 33, None], u'mond_duration': [63, 66, 67, 67, 66, 67, 67, 67, 68, 68, 68, 66, 69, 67, 67, 67, 69, 69, 68, 67, 69, 68, 68, 66, 67, 68, 68, 68, 67, 68, 66, 69, 65, 67, 67, 64, 67, 66, 67, 67], u'nums': [0, 1, 2, 3, 4, 5, 6, 7, 8, 9, 10, 11, 12, 13, 14, 15, 16, 17, 18, 19, 20, 21, 22, 23, 24, 25, 26, 27, 28, 29, 30, 31, 32, 33, 34, 35, 36, 37, 38, 39]}",,900,0,100,,26284,1,0,0.0-0.0-2.0,-1,-1,,3,A10T81KGJV05UD:3WMOAN2SRCFXV3K9EAXW8TK73DZNVZ,4,,0,bRMS-test,1531986573949,,../static/images/f143.jpg,1,15,2
,,,3,,,,,,,35962,,,0.0-2.0,,,,4,A10T81KGJV05UD:3WMOAN2SRCFXV3K9EAXW8TK73DZNVZ,,,,fullscreen,,True,,1,,2
,,,4,,,,,,,42658,,,0.0-3.0-0.0,32,6692,,5,A10T81KGJV05UD:3WMOAN2SRCFXV3K9EAXW8TK73DZNVZ,,,,html-keyboard-response,,,"[u""<div class='center'>Welcome to the study!<br>     <p>Your participation will help us investigate human precision and reaction-times in dynamic environments.</p>    <p>Please read the instructions carefully.</p>    <p align='center'><i>Press the space bar to continue.</i></p></div>""]",1,,2
,,,5,,,,,,,50418,,,0.0-3.0-1.0,32,7760,,6,A10T81KGJV05UD:3WMOAN2SRCFXV3K9EAXW8TK73DZNVZ,,,,html-keyboard-response,,,"[u""<div class='center'><p>We will begin by calibrating the experiment       for the size of your screen.</p>      <p>After this short calibration, we will continue to the main task for       this study.</p>      <p align='center'><i>Press the space bar to continue.</i></p></div>""]",1,,2
,,,6,,,,,,,56394,,,0.0-3.0-2.0,32,5974,,7,A10T81KGJV05UD:3WMOAN2SRCFXV3K9EAXW8TK73DZNVZ,,,,html-keyboard-response,,,"[u""<div class='center'><p>For the calibration stage, you will need a coin.</p>      <p>Any US coin will do.</p>      <p align='center'><i>Press the space bar to continue.</i></p></div>""]",1,,2
,,,7,,,,,,,67113,,,0.0-3.0-3.0,32,10714,,8,A10T81KGJV05UD:3WMOAN2SRCFXV3K9EAXW8TK73DZNVZ,,,,html-keyboard-response,,,"[u""<div class='center'><img src='/static/images/coin_demo.jpg' height='400'></img>      <p>You will be asked to position the coin      as shown in the picture. You will place it against your screen,      within an empty circle presented to you.</p>      <p align='center'><i>Press the space bar to continue.</i></p></div>""]",1,,2
,,,8,,,,,,,74050,,,0.0-3.0-4.0,32,6935,,9,A10T81KGJV05UD:3WMOAN2SRCFXV3K9EAXW8TK73DZNVZ,,,,html-keyboard-response,,,"[u""<div class='center'><p>Using the up and down arrow keys,       you will then adjust the size of the empty circle, so that it matches the       size of your coin.</p>      <p align='center'><i>Press the space bar to continue.</i></p></div>""]",1,,2
,,,9,,,,,,,80305,,,0.0-3.0-5.0,32,6253,,10,A10T81KGJV05UD:3WMOAN2SRCFXV3K9EAXW8TK73DZNVZ,,,,html-keyboard-response,,,"[u""<div class='center'><p>Take your time in doing so, as this measurement      will be used throughout the study to make sure images are presented to       you in their correct size.</p>      <p>When you are done adjusting the circle size, press the space bar to       continue to the main task.      <p align='center'><i>Press the space bar to continue.</i></p></div>""]",1,,2
,,,10,,,,,,,82686,,,0.0-3.0-6.0,32,2381,,11,A10T81KGJV05UD:3WMOAN2SRCFXV3K9EAXW8TK73DZNVZ,,,,html-keyboard-response,,,"[u""<div class='center'><p>Please have a coin at hand.</p>      <p>Press the space bar to start the calibration stage.</p></div>""]",1,,2
,,,11,,0,,,,,100058,,,0.0-4.0-0.0-0.0,,17368,,12,A10T81KGJV05UD:3WMOAN2SRCFXV3K9EAXW8TK73DZNVZ,,,,html-button-response,,,"Using the mouse, select the coin you would like to use:",1,,2
,,,12,,,,,,,105181,,,0.0-4.0-0.0-1.0-0.0,38,5120,,13,A10T81KGJV05UD:3WMOAN2SRCFXV3K9EAXW8TK73DZNVZ,,,,html-keyboard-response,,,"<svg style=""block: inline"" width=""800"" height=""300"">  <circle cx=""200"" cy=""211.9"" r=""38.1"" stroke=""black"" stroke-width=""2"" fill=""grey"" />  <line x1=""0"" y1=""250"" x2=""1000"" y2=""250"" style=""stroke:black;stroke-width:2"" />  <image x=""561.9"" y=""173.8"" width=""76.2"" height=""76.2"" style:""block: inline"" xlink:href=""/static/images/Penny.png""></image>    <circle cx=""600"" cy=""211.9"" r=""38.1"" stroke=""black"" stroke-width=""2"" fill-opacity=""0"" /></svg>",1,,2
,,,13,,,,,,,105731,,,0.0-4.0-0.0-1.1-0.1,38,545,,14,A10T81KGJV05UD:3WMOAN2SRCFXV3K9EAXW8TK73DZNVZ,,,,html-keyboard-response,,,"<svg style=""block: inline"" width=""800"" height=""300"">  <circle cx=""200"" cy=""209.995"" r=""40.005"" stroke=""black"" stroke-width=""2"" fill=""grey"" />  <line x1=""0"" y1=""250"" x2=""1000"" y2=""250"" style=""stroke:black;stroke-width:2"" />  <image x=""559.995"" y=""169.99"" width=""80.01"" height=""80.01"" style:""block: inline"" xlink:href=""/static/images/Penny.png""></image>    <circle cx=""600"" cy=""209.995"" r=""40.005"" stroke=""black"" stroke-width=""2"" fill-opacity=""0"" /></svg>",1,,2
,,,14,,,,,,,105959,,,0.0-4.0-0.0-1.2-0.2,38,226,,15,A10T81KGJV05UD:3WMOAN2SRCFXV3K9EAXW8TK73DZNVZ,,,,html-keyboard-response,,,"<svg style=""block: inline"" width=""800"" height=""300"">  <circle cx=""200"" cy=""208.09"" r=""41.910000000000004"" stroke=""black"" stroke-width=""2"" fill=""grey"" />  <line x1=""0"" y1=""250"" x2=""1000"" y2=""250"" style=""stroke:black;stroke-width:2"" />  <image x=""558.09"" y=""166.18"" width=""83.82000000000001"" height=""83.82000000000001"" style:""block: inline"" xlink:href=""/static/images/Penny.png""></image>    <circle cx=""600"" cy=""208.09"" r=""41.910000000000004"" stroke=""black"" stroke-width=""2"" fill-opacity=""0"" /></svg>",1,,2
,,,15,,,,,,,106160,,,0.0-4.0-0.0-1.3-0.3,38,198,,16,A10T81KGJV05UD:3WMOAN2SRCFXV3K9EAXW8TK73DZNVZ,,,,html-keyboard-response,,,"<svg style=""block: inline"" width=""800"" height=""300"">  <circle cx=""200"" cy=""206.185"" r=""43.815000000000005"" stroke=""black"" stroke-width=""2"" fill=""grey"" />  <line x1=""0"" y1=""250"" x2=""1000"" y2=""250"" style=""stroke:black;stroke-width:2"" />  <image x=""556.185"" y=""162.37"" width=""87.63000000000001"" height=""87.63000000000001"" style:""block: inline"" xlink:href=""/static/images/Penny.png""></image>    <circle cx=""600"" cy=""206.185"" r=""43.815000000000005"" stroke=""black"" stroke-width=""2"" fill-opacity=""0"" /></svg>",1,,2
,,,16,,,,,,,106347,,,0.0-4.0-0.0-1.4-0.4,38,185,,17,A10T81KGJV05UD:3WMOAN2SRCFXV3K9EAXW8TK73DZNVZ,,,,html-keyboard-response,,,"<svg style=""block: inline"" width=""800"" height=""300"">  <circle cx=""200"" cy=""204.28"" r=""45.720000000000006"" stroke=""black"" stroke-width=""2"" fill=""grey"" />  <line x1=""0"" y1=""250"" x2=""1000"" y2=""250"" style=""stroke:black;stroke-width:2"" />  <image x=""554.28"" y=""158.56"" width=""91.44000000000001"" height=""91.44000000000001"" style:""block: inline"" xlink:href=""/static/images/Penny.png""></image>    <circle cx=""600"" cy=""204.28"" r=""45.720000000000006"" stroke=""black"" stroke-width=""2"" fill-opacity=""0"" /></svg>",1,,2
,,,17,,,,,,,106541,,,0.0-4.0-0.0-1.5-0.5,38,192,,18,A10T81KGJV05UD:3WMOAN2SRCFXV3K9EAXW8TK73DZNVZ,,,,html-keyboard-response,,,"<svg style=""block: inline"" width=""800"" height=""300"">  <circle cx=""200"" cy=""202.375"" r=""47.62500000000001"" stroke=""black"" stroke-width=""2"" fill=""grey"" />  <line x1=""0"" y1=""250"" x2=""1000"" y2=""250"" style=""stroke:black;stroke-width:2"" />  <image x=""552.375"" y=""154.75"" width=""95.25000000000001"" height=""95.25000000000001"" style:""block: inline"" xlink:href=""/static/images/Penny.png""></image>    <circle cx=""600"" cy=""202.375"" r=""47.62500000000001"" stroke=""black"" stroke-width=""2"" fill-opacity=""0"" /></svg>",1,,2
,,,18,,,,,,,106705,,,0.0-4.0-0.0-1.6-0.6,38,163,,19,A10T81KGJV05UD:3WMOAN2SRCFXV3K9EAXW8TK73DZNVZ,,,,html-keyboard-response,,,"<svg style=""block: inline"" width=""800"" height=""300"">  <circle cx=""200"" cy=""200.46999999999997"" r=""49.530000000000015"" stroke=""black"" stroke-width=""2"" fill=""grey"" />  <line x1=""0"" y1=""250"" x2=""1000"" y2=""250"" style=""stroke:black;stroke-width:2"" />  <image x=""550.47"" y=""150.93999999999997"" width=""99.06000000000003"" height=""99.06000000000003"" style:""block: inline"" xlink:href=""/static/images/Penny.png""></image>    <circle cx=""600"" cy=""200.46999999999997"" r=""49.530000000000015"" stroke=""black"" stroke-width=""2"" fill-opacity=""0"" /></svg>",1,,2
,,,19,,,,,,,107207,,,0.0-4.0-0.0-1.7-0.7,38,500,,20,A10T81KGJV05UD:3WMOAN2SRCFXV3K9EAXW8TK73DZNVZ,,,,html-keyboard-response,,,"<svg style=""block: inline"" width=""800"" height=""300"">  <circle cx=""200"" cy=""198.565"" r=""51.43500000000002"" stroke=""black"" stroke-width=""2"" fill=""grey"" />  <line x1=""0"" y1=""250"" x2=""1000"" y2=""250"" style=""stroke:black;stroke-width:2"" />  <image x=""548.5649999999999"" y=""147.12999999999997"" width=""102.87000000000003"" height=""102.87000000000003"" style:""block: inline"" xlink:href=""/static/images/Penny.png""></image>    <circle cx=""600"" cy=""198.565"" r=""51.43500000000002"" stroke=""black"" stroke-width=""2"" fill-opacity=""0"" /></svg>",1,,2
,,,20,,,,,,,107739,,,0.0-4.0-0.0-1.8-0.8,40,529,,21,A10T81KGJV05UD:3WMOAN2SRCFXV3K9EAXW8TK73DZNVZ,,,,html-keyboard-response,,,"<svg style=""block: inline"" width=""800"" height=""300"">  <circle cx=""200"" cy=""196.65999999999997"" r=""53.34000000000002"" stroke=""black"" stroke-width=""2"" fill=""grey"" />  <line x1=""0"" y1=""250"" x2=""1000"" y2=""250"" style=""stroke:black;stroke-width:2"" />  <image x=""546.66"" y=""143.31999999999996"" width=""106.68000000000004"" height=""106.68000000000004"" style:""block: inline"" xlink:href=""/static/images/Penny.png""></image>    <circle cx=""600"" cy=""196.65999999999997"" r=""53.34000000000002"" stroke=""black"" stroke-width=""2"" fill-opacity=""0"" /></svg>",1,,2
,,,21,,,,,,,108066,,,0.0-4.0-0.0-1.9-0.9,40,325,,22,A10T81KGJV05UD:3WMOAN2SRCFXV3K9EAXW8TK73DZNVZ,,,,html-keyboard-response,,,"<svg style=""block: inline"" width=""800"" height=""300"">  <circle cx=""200"" cy=""198.565"" r=""51.43500000000002"" stroke=""black"" stroke-width=""2"" fill=""grey"" />  <line x1=""0"" y1=""250"" x2=""1000"" y2=""250"" style=""stroke:black;stroke-width:2"" />  <image x=""548.5649999999999"" y=""147.12999999999997"" width=""102.87000000000003"" height=""102.87000000000003"" style:""block: inline"" xlink:href=""/static/images/Penny.png""></image>    <circle cx=""600"" cy=""198.565"" r=""51.43500000000002"" stroke=""black"" stroke-width=""2"" fill-opacity=""0"" /></svg>",1,,2
,,,22,,,,,,,108298,,,0.0-4.0-0.0-1.10-0.10,40,230,,23,A10T81KGJV05UD:3WMOAN2SRCFXV3K9EAXW8TK73DZNVZ,,,,html-keyboard-response,,,"<svg style=""block: inline"" width=""800"" height=""300"">  <circle cx=""200"" cy=""200.46999999999997"" r=""49.530000000000015"" stroke=""black"" stroke-width=""2"" fill=""grey"" />  <line x1=""0"" y1=""250"" x2=""1000"" y2=""250"" style=""stroke:black;stroke-width:2"" />  <image x=""550.47"" y=""150.93999999999997"" width=""99.06000000000003"" height=""99.06000000000003"" style:""block: inline"" xlink:href=""/static/images/Penny.png""></image>    <circle cx=""600"" cy=""200.46999999999997"" r=""49.530000000000015"" stroke=""black"" stroke-width=""2"" fill-opacity=""0"" /></svg>",1,,2
,,,23,,,,,,,112437,,,0.0-4.0-0.0-1.11-0.11,38,4135,,24,A10T81KGJV05UD:3WMOAN2SRCFXV3K9EAXW8TK73DZNVZ,,,,html-keyboard-response,,,"<svg style=""block: inline"" width=""800"" height=""300"">  <circle cx=""200"" cy=""202.375"" r=""47.62500000000001"" stroke=""black"" stroke-width=""2"" fill=""grey"" />  <line x1=""0"" y1=""250"" x2=""1000"" y2=""250"" style=""stroke:black;stroke-width:2"" />  <image x=""552.375"" y=""154.75"" width=""95.25000000000001"" height=""95.25000000000001"" style:""block: inline"" xlink:href=""/static/images/Penny.png""></image>    <circle cx=""600"" cy=""202.375"" r=""47.62500000000001"" stroke=""black"" stroke-width=""2"" fill-opacity=""0"" /></svg>",1,,2
,,,24,,,,,,,190340,,,0.0-4.0-0.0-1.12-0.12,32,77901,,25,A10T81KGJV05UD:3WMOAN2SRCFXV3K9EAXW8TK73DZNVZ,,,,html-keyboard-response,,,"<svg style=""block: inline"" width=""800"" height=""300"">  <circle cx=""200"" cy=""200.46999999999997"" r=""49.530000000000015"" stroke=""black"" stroke-width=""2"" fill=""grey"" />  <line x1=""0"" y1=""250"" x2=""1000"" y2=""250"" style=""stroke:black;stroke-width:2"" />  <image x=""550.47"" y=""150.93999999999997"" width=""99.06000000000003"" height=""99.06000000000003"" style:""block: inline"" xlink:href=""/static/images/Penny.png""></image>    <circle cx=""600"" cy=""200.46999999999997"" r=""49.530000000000015"" stroke=""black"" stroke-width=""2"" fill-opacity=""0"" /></svg>",1,,2
,,,25,,,,,,,194351,,,0.0-4.0-1.0,32,4007,,26,A10T81KGJV05UD:3WMOAN2SRCFXV3K9EAXW8TK73DZNVZ,,,,html-keyboard-response,,,"<svg style=""block: inline"" width=""800"" height=""300"">  <circle cx=""200"" cy=""200.46999999999997"" r=""49.530000000000015"" stroke=""red"" stroke-width=""2"" fill=""grey"" />  <line x1=""0"" y1=""250"" x2=""1000"" y2=""250"" style=""stroke:red;stroke-width:2"" />  <image x=""550.47"" y=""150.93999999999997"" width=""99.06000000000003"" height=""99.06000000000003"" style:""block: inline"" xlink:href=""/static/images/Penny.png""></image>    <circle cx=""600"" cy=""200.46999999999997"" r=""49.530000000000015"" stroke=""red"" stroke-width=""2"" fill-opacity=""0"" /></svg>",1,,2
,,,26,,,,,,,196814,,,0.0-5.0-0.0,32,2463,,27,A10T81KGJV05UD:3WMOAN2SRCFXV3K9EAXW8TK73DZNVZ,,,,html-keyboard-response,,,"[u""<p>We will now continue to the main task.</p>    <p align='center'><i>Press the space bar to continue.</i></p>""]",1,,2
,,,27,,,,,,,200053,,,0.0-5.0-1.0,32,3237,,28,A10T81KGJV05UD:3WMOAN2SRCFXV3K9EAXW8TK73DZNVZ,,,,html-keyboard-response,,,"[u""<div class = 'center'><p>You will be presented with rapidly       changing patterns of rectangles. Through these rectangles, female faces will appear. Your task will be to indicate the location of       the faces, or any part of them, as soon as they appear.</p>      <p align='center'><i>Press the space bar to continue.</i></p></div>""]",1,,2
,,,28,,,,,,,202568,,,0.0-5.0-2.0,32,2514,,29,A10T81KGJV05UD:3WMOAN2SRCFXV3K9EAXW8TK73DZNVZ,,,,html-keyboard-response,,,"[u""<div class = 'center'><p>If a woman's face appeared in the right half       of the screen, press the right key. If a woman's face appeared in the left half       of the screen, press the left key.</p>      <p align='center'><i>Press the space bar to continue.</i></p></div>""]",1,,2
,,,29,,,,,,,204599,,,0.0-5.0-3.0,32,2029,,30,A10T81KGJV05UD:3WMOAN2SRCFXV3K9EAXW8TK73DZNVZ,,,,html-keyboard-response,,,"[u""<div class = 'center'><p>Please perform this task as accurately       and quickly as you can.</p>      <p align='center'><i>Press the space bar to continue.</i></p></div>""]",1,,2
,,,30,,,,,,,208782,,,0.0-5.0-4.0,32,4183,,31,A10T81KGJV05UD:3WMOAN2SRCFXV3K9EAXW8TK73DZNVZ,,,,html-keyboard-response,,,"[u""<div class = 'center'><p>During the task, please focus your gaze at       the plus sign in the middle.<br>Even though the faces appear to the left        and right of the plus sign, it is important that you look at the plus         sign at all times.</p>        <p align='center'></i>Press the space bar to continue.</i></p></div>""]",1,,2
,,,31,,,,,,,224966,,,0.0-5.0-5.0,68,16182,,32,A10T81KGJV05UD:3WMOAN2SRCFXV3K9EAXW8TK73DZNVZ,,,,html-keyboard-response,,,"[u""<div class='center'>      <img src='/static/images/keys.jpg'></img>      <p>Place your fingers on the 'D' and 'K' keys as shown in the picture,       and press either one of these keys to continue.</p></div>""]",1,,2
,,,32,,,,,,,224970,,,0.0-6.0-0.0,,,,33,A10T81KGJV05UD:3WMOAN2SRCFXV3K9EAXW8TK73DZNVZ,,,,html-keyboard-response,,,,1,,2
,,,58,,,,,,,379161,,,0.0-7.0-0.0,68,10021,,34,A10T81KGJV05UD:3WMOAN2SRCFXV3K9EAXW8TK73DZNVZ,,,,html-keyboard-response,,,"[u""<div class = 'center'><p>You have completed the practice block.</p>  <p>You will now continue with the same task. The task may now be more   difficult.  You will have 3 short breaks. </p>    <p>Press either the 'D' or the 'K' keys to continue.</p></div>""]",1,,2
,,,59,,,,,,,384869,,,0.0-7.0-1.0,68,5706,,35,A10T81KGJV05UD:3WMOAN2SRCFXV3K9EAXW8TK73DZNVZ,,,,html-keyboard-response,,,"[u""<div class = 'center'><p>During the task, please focus your gaze at   the plus sign in the middle.<br>Even though the faces appear to the left    and right of the plus sign, it is important that you look at the plus     sign at all times.</p>    <p>Press either the 'D' or the 'K' keys to continue.</p></div>""]",1,,2
,,,110,,,,,,,688961,,,0.0-8.0-100.0,32,9502,,36,A10T81KGJV05UD:3WMOAN2SRCFXV3K9EAXW8TK73DZNVZ,,,,html-keyboard-response,,,"[u""<div class = 'center'><p>This is a break.</p>  <p>Press the space bar to continue.</p>""]",1,,2
,,,161,,,,,,,997464,,,0.0-8.0-202.0,32,2346,,37,A10T81KGJV05UD:3WMOAN2SRCFXV3K9EAXW8TK73DZNVZ,,,,html-keyboard-response,,,"[u""<div class = 'center'><p>This is a break.</p>  <p>Press the space bar to continue.</p>""]",1,,2
,,,212,,,,,,,1276060,,,0.0-8.0-304.0,32,2820,,38,A10T81KGJV05UD:3WMOAN2SRCFXV3K9EAXW8TK73DZNVZ,,,,html-keyboard-response,,,"[u""<div class = 'center'><p>This is a break.</p>  <p>Press the space bar to continue.</p>""]",1,,2
,,,263,,,,,,,1537438,,,0.0-9.0,32,5148,,39,A10T81KGJV05UD:3WMOAN2SRCFXV3K9EAXW8TK73DZNVZ,,,,html-keyboard-response,,,"<div class='center'>You have completed this part of the study.    <p>You will now answer several questions. Please answer them sincerely,     we remind you that your answers are completely annonymous.</p>    <p align='center'><i>Press the space bar to continue.</i></p></div>",1,,2
,,,264,,,,,,,1555306,,,0.0-10.0,,17863,"{""Q0"":""26"",""Q1"":""no""}",40,A10T81KGJV05UD:3WMOAN2SRCFXV3K9EAXW8TK73DZNVZ,,,,survey-text,,,,1,,2
,,,265,,,,,,,1563595,,,0.0-11.0,,8280,"{""Q0"":""Female"",""Q1"":""Right"",""Q2"":""Yes""}",41,A10T81KGJV05UD:3WMOAN2SRCFXV3K9EAXW8TK73DZNVZ,,,,survey-multi-choice,,,,1,,2
,,,266,,,,,,,1572285,,,0.0-12.0,,8686,"{""Q0"":4}",42,A10T81KGJV05UD:3WMOAN2SRCFXV3K9EAXW8TK73DZNVZ,,,,survey-likert,,,,1,,2
,,,267,,,,,,,1591185,,,0.0-13.0,,18898,"{""Q0"":""concentration ""}",43,A10T81KGJV05UD:3WMOAN2SRCFXV3K9EAXW8TK73DZNVZ,,,,survey-text,,,,1,,2
,,,268,,,,,,,1598188,,,0.0-14.0,,6995,"{""Q0"":""Heterosexual or straight"",""Q1"":""Mostly attracted to females""}",44,A10T81KGJV05UD:3WMOAN2SRCFXV3K9EAXW8TK73DZNVZ,,,,survey-multi-choice,,,,1,,2
,,,269,,,,,,,1604591,,,0.0-15.0,32,6402,,45,A10T81KGJV05UD:3WMOAN2SRCFXV3K9EAXW8TK73DZNVZ,,,,html-keyboard-response,,,"<div class='center'><p>You will now be presented with a few more statements.	Please read each statement carfully, and indicate the degree to which you agree or disagree with it.</p>    <p>We remind you that your answers are completely annonymous.</p>    <p align='center'><i>Press the space bar to continue.</i></p></div>",1,,2
,,,270,,,,,,Iraq,1611980,,,0.0-16.0,,7384,"{""Q0"":6}",46,A10T81KGJV05UD:3WMOAN2SRCFXV3K9EAXW8TK73DZNVZ,,True,,survey-likert,,,,1,,2
,,,271,,,,,,Environment laws,1615195,,,0.0-17.0,,3211,"{""Q0"":4}",47,A10T81KGJV05UD:3WMOAN2SRCFXV3K9EAXW8TK73DZNVZ,,False,,survey-likert,,,,1,,2
,,,272,,,,,,Homosexuals,1620338,,,0.0-18.0,,5140,"{""Q0"":6}",48,A10T81KGJV05UD:3WMOAN2SRCFXV3K9EAXW8TK73DZNVZ,,True,,survey-likert,,,,1,,2
,,,273,,,,,,Gun control,1626099,,,0.0-19.0,,5758,"{""Q0"":6}",49,A10T81KGJV05UD:3WMOAN2SRCFXV3K9EAXW8TK73DZNVZ,,True,,survey-likert,,,,1,,2
,,,274,,,,,,Death penalty,1629211,,,0.0-20.0,,3109,"{""Q0"":3}",50,A10T81KGJV05UD:3WMOAN2SRCFXV3K9EAXW8TK73DZNVZ,,False,,survey-likert,,,,1,,2
,,,275,,,,,,Stem Cell,1632146,,,0.0-21.0,,2933,"{""Q0"":4}",51,A10T81KGJV05UD:3WMOAN2SRCFXV3K9EAXW8TK73DZNVZ,,True,,survey-likert,,,,1,,2
,,,276,,,,,,Abortion,1640458,,,0.0-22.0,,8309,"{""Q0"":3}",52,A10T81KGJV05UD:3WMOAN2SRCFXV3K9EAXW8TK73DZNVZ,,True,,survey-likert,,,,1,,2
,,,277,,,,,,Affirmative action,1643274,,,0.0-23.0,,2812,"{""Q0"":4}",53,A10T81KGJV05UD:3WMOAN2SRCFXV3K9EAXW8TK73DZNVZ,,True,,survey-likert,,,,1,,2
,,,278,,,,,,,1646138,,,0.0-24.0,,2860,"{""Q0"":""Yes""}",54,A10T81KGJV05UD:3WMOAN2SRCFXV3K9EAXW8TK73DZNVZ,,,,survey-multi-choice,,,,1,,2
,,,279,,,,,,,1648834,,,0.0-25.0-0.0,,2694,"{""Q0"":4}",55,A10T81KGJV05UD:3WMOAN2SRCFXV3K9EAXW8TK73DZNVZ,,,,survey-likert,,,,1,,2
,,,280,,,,,,,1656625,,,0.0-25.0-1.0,,7789,"{""Q0"":""0""}",56,A10T81KGJV05UD:3WMOAN2SRCFXV3K9EAXW8TK73DZNVZ,,,,survey-text,,,,1,,2
,,,281,,,,,,,1663081,,,0.0-26.0,,6454,"{""Q0"":""0""}",57,A10T81KGJV05UD:3WMOAN2SRCFXV3K9EAXW8TK73DZNVZ,,,,survey-text,,,,1,,2
,,,282,,,,,,,1672947,,,0.0-27.0,32,9865,,58,A10T81KGJV05UD:3WMOAN2SRCFXV3K9EAXW8TK73DZNVZ,,,,html-keyboard-response,,,"<div class=""center"">Thank you for participating in this study!<p>    In this study we were interested in examining reaction-times and     precision in a dynamic environment.</p>    <p>Once you press the space bar, your results will be uploaded to the     server, and the HIT will complete. <b>This may take several minutes - do not     refresh or close your browser during this time.</b></p>    <p>Press the space bar to complete this HIT.</p></div>",1,,2
1,0.4,5,0,"{u'stim_duration': [32, 34, 33, 33, 33, 31, 34, 33, 33, 33, 32, 33, 33, 34, 33, 36, 34, 33, 34, 35, 33, 35, 33, 34, 33, 32, 34, 32, 33, 34, 34, 19, 34, 17, 16, 16, 33, 33, 16, 33, 0], u'mond_duration': [40, 67, 66, 67, 67, 69, 66, 67, 66, 66, 68, 67, 67, 66, 67, 67, 63, 66, 66, 66, 66, 66, 65, 66, 66, 68, 67, 67, 67, 66, 66, 99, 48, 82, 83, 84, 68, 67, 83, 84, None], u'nums': [0, 1, 2, 3, 4, 5, 6, 7, 8, 9, 10, 11, 12, 13, 14, 15, 16, 17, 18, 19, 20, 21, 22, 23, 24, 25, 26, 27, 28, 29, 30, 31, 32, 33, 34, 35, 36, 37, 38, 39, 40]}",,900,0,100,,5683,1,0,0.0-0.0-0.0,-1,-1,,1,A114INA2S32A8L:32EYX73OY1RIXMN12R48LRNYQB1UR7,4,,0,bRMS-test,1532018437081,,../static/images/f192.jpg,1,15,3
1,0.4,5,1,"{u'stim_duration': [16, 34, None], u'mond_duration': [64, 66, 85], u'nums': [0, 1, 2]}",,900,0,100,,11404,0,0,0.0-0.0-1.0,-1,-1,,2,A114INA2S32A8L:32EYX73OY1RIXMN12R48LRNYQB1UR7,4,,0,bRMS-test,1532018442832,,../static/images/f290.jpg,1,15,3
1,0.4,5,2,"{u'stim_duration': [41, 34, 33, 34, 16, 33, 34, 38, 33, 48, 33, 34, 33, 34, 33, 33, 32, 33, 23, 33, 35, 34, 33, 35, 33, 34, 33, 32, 34, 33, 33, 34, 34, 33, 33, 31, 31, 38, 34, None], u'mond_duration': [47, 56, 83, 66, 67, 83, 66, 62, 66, 52, 67, 66, 67, 65, 67, 67, 68, 67, 66, 77, 67, 64, 67, 65, 66, 66, 68, 67, 66, 66, 68, 66, 66, 66, 68, 68, 67, 68, 61, 66], u'nums': [0, 1, 2, 3, 4, 5, 6, 7, 8, 9, 10, 11, 12, 13, 14, 15, 16, 17, 18, 19, 20, 21, 22, 23, 24, 25, 26, 27, 28, 29, 30, 31, 32, 33, 34, 35, 36, 37, 38, 39]}",,900,0,100,,17481,1,1,0.0-0.0-2.0,-1,-1,,3,A114INA2S32A8L:32EYX73OY1RIXMN12R48LRNYQB1UR7,4,,0,bRMS-test,1532018448566,,../static/images/f142.jpg,1,15,3
,,,3,,,,,,,22435,,,0.0-2.0,,,,4,A114INA2S32A8L:32EYX73OY1RIXMN12R48LRNYQB1UR7,,,,fullscreen,,True,,1,,3
,,,4,,,,,,,24675,,,0.0-3.0-0.0,32,2237,,5,A114INA2S32A8L:32EYX73OY1RIXMN12R48LRNYQB1UR7,,,,html-keyboard-response,,,"[u""<div class='center'>Welcome to the study!<br>     <p>Your participation will help us investigate human precision and reaction-times in dynamic environments.</p>    <p>Please read the instructions carefully.</p>    <p align='center'><i>Press the space bar to continue.</i></p></div>""]",1,,3
,,,5,,,,,,,32647,,,0.0-3.0-1.0,32,7970,,6,A114INA2S32A8L:32EYX73OY1RIXMN12R48LRNYQB1UR7,,,,html-keyboard-response,,,"[u""<div class='center'><p>We will begin by calibrating the experiment       for the size of your screen.</p>      <p>After this short calibration, we will continue to the main task for       this study.</p>      <p align='center'><i>Press the space bar to continue.</i></p></div>""]",1,,3
,,,6,,,,,,,35675,,,0.0-3.0-2.0,32,3028,,7,A114INA2S32A8L:32EYX73OY1RIXMN12R48LRNYQB1UR7,,,,html-keyboard-response,,,"[u""<div class='center'><p>For the calibration stage, you will need a coin.</p>      <p>Any US coin will do.</p>      <p align='center'><i>Press the space bar to continue.</i></p></div>""]",1,,3
,,,7,,,,,,,43207,,,0.0-3.0-3.0,32,7532,,8,A114INA2S32A8L:32EYX73OY1RIXMN12R48LRNYQB1UR7,,,,html-keyboard-response,,,"[u""<div class='center'><img src='/static/images/coin_demo.jpg' height='400'></img>      <p>You will be asked to position the coin      as shown in the picture. You will place it against your screen,      within an empty circle presented to you.</p>      <p align='center'><i>Press the space bar to continue.</i></p></div>""]",1,,3
,,,8,,,,,,,48483,,,0.0-3.0-4.0,32,5275,,9,A114INA2S32A8L:32EYX73OY1RIXMN12R48LRNYQB1UR7,,,,html-keyboard-response,,,"[u""<div class='center'><p>Using the up and down arrow keys,       you will then adjust the size of the empty circle, so that it matches the       size of your coin.</p>      <p align='center'><i>Press the space bar to continue.</i></p></div>""]",1,,3
,,,9,,,,,,,52278,,,0.0-3.0-5.0,32,3794,,10,A114INA2S32A8L:32EYX73OY1RIXMN12R48LRNYQB1UR7,,,,html-keyboard-response,,,"[u""<div class='center'><p>Take your time in doing so, as this measurement      will be used throughout the study to make sure images are presented to       you in their correct size.</p>      <p>When you are done adjusting the circle size, press the space bar to       continue to the main task.      <p align='center'><i>Press the space bar to continue.</i></p></div>""]",1,,3
,,,10,,,,,,,61191,,,0.0-3.0-6.0,32,8911,,11,A114INA2S32A8L:32EYX73OY1RIXMN12R48LRNYQB1UR7,,,,html-keyboard-response,,,"[u""<div class='center'><p>Please have a coin at hand.</p>      <p>Press the space bar to start the calibration stage.</p></div>""]",1,,3
,,,11,,0,,,,,65036,,,0.0-4.0-0.0-0.0,,3843,,12,A114INA2S32A8L:32EYX73OY1RIXMN12R48LRNYQB1UR7,,,,html-button-response,,,"Using the mouse, select the coin you would like to use:",1,,3
,,,12,,,,,,,74994,,,0.0-4.0-0.0-1.0-0.0,40,9955,,13,A114INA2S32A8L:32EYX73OY1RIXMN12R48LRNYQB1UR7,,,,html-keyboard-response,,,"<svg style=""block: inline"" width=""800"" height=""300"">  <circle cx=""200"" cy=""211.9"" r=""38.1"" stroke=""black"" stroke-width=""2"" fill=""grey"" />  <line x1=""0"" y1=""250"" x2=""1000"" y2=""250"" style=""stroke:black;stroke-width:2"" />  <image x=""561.9"" y=""173.8"" width=""76.2"" height=""76.2"" style:""block: inline"" xlink:href=""/static/images/Penny.png""></image>    <circle cx=""600"" cy=""211.9"" r=""38.1"" stroke=""black"" stroke-width=""2"" fill-opacity=""0"" /></svg>",1,,3
,,,13,,,,,,,76448,,,0.0-4.0-0.0-1.1-0.1,40,1448,,14,A114INA2S32A8L:32EYX73OY1RIXMN12R48LRNYQB1UR7,,,,html-keyboard-response,,,"<svg style=""block: inline"" width=""800"" height=""300"">  <circle cx=""200"" cy=""213.805"" r=""36.195"" stroke=""black"" stroke-width=""2"" fill=""grey"" />  <line x1=""0"" y1=""250"" x2=""1000"" y2=""250"" style=""stroke:black;stroke-width:2"" />  <image x=""563.805"" y=""177.61"" width=""72.39"" height=""72.39"" style:""block: inline"" xlink:href=""/static/images/Penny.png""></image>    <circle cx=""600"" cy=""213.805"" r=""36.195"" stroke=""black"" stroke-width=""2"" fill-opacity=""0"" /></svg>",1,,3
,,,14,,,,,,,82806,,,0.0-4.0-0.0-1.2-0.2,32,6355,,15,A114INA2S32A8L:32EYX73OY1RIXMN12R48LRNYQB1UR7,,,,html-keyboard-response,,,"<svg style=""block: inline"" width=""800"" height=""300"">  <circle cx=""200"" cy=""215.71"" r=""34.29"" stroke=""black"" stroke-width=""2"" fill=""grey"" />  <line x1=""0"" y1=""250"" x2=""1000"" y2=""250"" style=""stroke:black;stroke-width:2"" />  <image x=""565.71"" y=""181.42000000000002"" width=""68.58"" height=""68.58"" style:""block: inline"" xlink:href=""/static/images/Penny.png""></image>    <circle cx=""600"" cy=""215.71"" r=""34.29"" stroke=""black"" stroke-width=""2"" fill-opacity=""0"" /></svg>",1,,3
,,,15,,,,,,,89155,,,0.0-4.0-1.0,32,6345,,16,A114INA2S32A8L:32EYX73OY1RIXMN12R48LRNYQB1UR7,,,,html-keyboard-response,,,"<svg style=""block: inline"" width=""800"" height=""300"">  <circle cx=""200"" cy=""215.71"" r=""34.29"" stroke=""red"" stroke-width=""2"" fill=""grey"" />  <line x1=""0"" y1=""250"" x2=""1000"" y2=""250"" style=""stroke:red;stroke-width:2"" />  <image x=""565.71"" y=""181.42000000000002"" width=""68.58"" height=""68.58"" style:""block: inline"" xlink:href=""/static/images/Penny.png""></image>    <circle cx=""600"" cy=""215.71"" r=""34.29"" stroke=""red"" stroke-width=""2"" fill-opacity=""0"" /></svg>",1,,3
,,,16,,,,,,,90396,,,0.0-5.0-0.0,32,1241,,17,A114INA2S32A8L:32EYX73OY1RIXMN12R48LRNYQB1UR7,,,,html-keyboard-response,,,"[u""<p>We will now continue to the main task.</p>    <p align='center'><i>Press the space bar to continue.</i></p>""]",1,,3
,,,17,,,,,,,98754,,,0.0-5.0-1.0,32,8357,,18,A114INA2S32A8L:32EYX73OY1RIXMN12R48LRNYQB1UR7,,,,html-keyboard-response,,,"[u""<div class = 'center'><p>You will be presented with rapidly       changing patterns of rectangles. Through these rectangles, female faces will appear. Your task will be to indicate the location of       the faces, or any part of them, as soon as they appear.</p>      <p align='center'><i>Press the space bar to continue.</i></p></div>""]",1,,3
,,,18,,,,,,,110159,,,0.0-5.0-2.0,32,11405,,19,A114INA2S32A8L:32EYX73OY1RIXMN12R48LRNYQB1UR7,,,,html-keyboard-response,,,"[u""<div class = 'center'><p>If a woman's face appeared in the right half       of the screen, press the right key. If a woman's face appeared in the left half       of the screen, press the left key.</p>      <p align='center'><i>Press the space bar to continue.</i></p></div>""]",1,,3
,,,19,,,,,,,111994,,,0.0-5.0-3.0,32,1834,,20,A114INA2S32A8L:32EYX73OY1RIXMN12R48LRNYQB1UR7,,,,html-keyboard-response,,,"[u""<div class = 'center'><p>Please perform this task as accurately       and quickly as you can.</p>      <p align='center'><i>Press the space bar to continue.</i></p></div>""]",1,,3
,,,20,,,,,,,120010,,,0.0-5.0-4.0,32,8016,,21,A114INA2S32A8L:32EYX73OY1RIXMN12R48LRNYQB1UR7,,,,html-keyboard-response,,,"[u""<div class = 'center'><p>During the task, please focus your gaze at       the plus sign in the middle.<br>Even though the faces appear to the left        and right of the plus sign, it is important that you look at the plus         sign at all times.</p>        <p align='center'></i>Press the space bar to continue.</i></p></div>""]",1,,3
,,,21,,,,,,,135001,,,0.0-5.0-5.0,75,14988,,22,A114INA2S32A8L:32EYX73OY1RIXMN12R48LRNYQB1UR7,,,,html-keyboard-response,,,"[u""<div class='center'>      <img src='/static/images/keys.jpg'></img>      <p>Place your fingers on the 'D' and 'K' keys as shown in the picture,       and press either one of these keys to continue.</p></div>""]",1,,3
,,,22,,,,,,,135005,,,0.0-6.0-0.0,,,,23,A114INA2S32A8L:32EYX73OY1RIXMN12R48LRNYQB1UR7,,,,html-keyboard-response,,,,1,,3
,,,48,,,,,,,375461,,,0.0-7.0-0.0,68,44236,,24,A114INA2S32A8L:32EYX73OY1RIXMN12R48LRNYQB1UR7,,,,html-keyboard-response,,,"[u""<div class = 'center'><p>You have completed the practice block.</p>  <p>You will now continue with the same task. The task may now be more   difficult.  You will have 3 short breaks. </p>    <p>Press either the 'D' or the 'K' keys to continue.</p></div>""]",1,,3
,,,49,,,,,,,378702,,,0.0-7.0-1.0,68,3240,,25,A114INA2S32A8L:32EYX73OY1RIXMN12R48LRNYQB1UR7,,,,html-keyboard-response,,,"[u""<div class = 'center'><p>During the task, please focus your gaze at   the plus sign in the middle.<br>Even though the faces appear to the left    and right of the plus sign, it is important that you look at the plus     sign at all times.</p>    <p>Press either the 'D' or the 'K' keys to continue.</p></div>""]",1,,3
,,,100,,,,,,,834537,,,0.0-8.0-100.0,32,2130,,26,A114INA2S32A8L:32EYX73OY1RIXMN12R48LRNYQB1UR7,,,,html-keyboard-response,,,"[u""<div class = 'center'><p>This is a break.</p>  <p>Press the space bar to continue.</p>""]",1,,3
,,,151,,,,,,,1237258,,,0.0-8.0-202.0,32,2969,,27,A114INA2S32A8L:32EYX73OY1RIXMN12R48LRNYQB1UR7,,,,html-keyboard-response,,,"[u""<div class = 'center'><p>This is a break.</p>  <p>Press the space bar to continue.</p>""]",1,,3
,,,202,,,,,,,1538980,,,0.0-8.0-304.0,32,17145,,28,A114INA2S32A8L:32EYX73OY1RIXMN12R48LRNYQB1UR7,,,,html-keyboard-response,,,"[u""<div class = 'center'><p>This is a break.</p>  <p>Press the space bar to continue.</p>""]",1,,3
,,,253,,,,,,,1834730,,,0.0-9.0,32,2130,,29,A114INA2S32A8L:32EYX73OY1RIXMN12R48LRNYQB1UR7,,,,html-keyboard-response,,,"<div class='center'>You have completed this part of the study.    <p>You will now answer several questions. Please answer them sincerely,     we remind you that your answers are completely annonymous.</p>    <p align='center'><i>Press the space bar to continue.</i></p></div>",1,,3
,,,254,,,,,,,1842123,,,0.0-10.0,,7390,"{""Q0"":""51"",""Q1"":""No""}",30,A114INA2S32A8L:32EYX73OY1RIXMN12R48LRNYQB1UR7,,,,survey-text,,,,1,,3
,,,255,,,,,,,1847324,,,0.0-11.0,,5197,"{""Q0"":""Male"",""Q1"":""Right"",""Q2"":""Yes""}",31,A114INA2S32A8L:32EYX73OY1RIXMN12R48LRNYQB1UR7,,,,survey-multi-choice,,,,1,,3
,,,256,,,,,,,1850206,,,0.0-12.0,,2879,"{""Q0"":4}",32,A114INA2S32A8L:32EYX73OY1RIXMN12R48LRNYQB1UR7,,,,survey-likert,,,,1,,3
,,,257,,,,,,,1866093,,,0.0-13.0,,15884,"{""Q0"":""I think my mind starting looking just for the eyes.""}",33,A114INA2S32A8L:32EYX73OY1RIXMN12R48LRNYQB1UR7,,,,survey-text,,,,1,,3
,,,258,,,,,,,1871317,,,0.0-14.0,,5215,"{""Q0"":""Heterosexual or straight"",""Q1"":""Only attracted to females""}",34,A114INA2S32A8L:32EYX73OY1RIXMN12R48LRNYQB1UR7,,,,survey-multi-choice,,,,1,,3
,,,259,,,,,,,1874279,,,0.0-15.0,32,2960,,35,A114INA2S32A8L:32EYX73OY1RIXMN12R48LRNYQB1UR7,,,,html-keyboard-response,,,"<div class='center'><p>You will now be presented with a few more statements.	Please read each statement carfully, and indicate the degree to which you agree or disagree with it.</p>    <p>We remind you that your answers are completely annonymous.</p>    <p align='center'><i>Press the space bar to continue.</i></p></div>",1,,3
,,,260,,,,,,Gun control,1879059,,,0.0-16.0,,4779,"{""Q0"":2}",36,A114INA2S32A8L:32EYX73OY1RIXMN12R48LRNYQB1UR7,,True,,survey-likert,,,,1,,3
,,,261,,,,,,Stem Cell,1883636,,,0.0-17.0,,4574,"{""Q0"":5}",37,A114INA2S32A8L:32EYX73OY1RIXMN12R48LRNYQB1UR7,,True,,survey-likert,,,,1,,3
,,,262,,,,,,Abortion,1887042,,,0.0-18.0,,3404,"{""Q0"":0}",38,A114INA2S32A8L:32EYX73OY1RIXMN12R48LRNYQB1UR7,,True,,survey-likert,,,,1,,3
,,,263,,,,,,Homosexuals,1890869,,,0.0-19.0,,3824,"{""Q0"":0}",39,A114INA2S32A8L:32EYX73OY1RIXMN12R48LRNYQB1UR7,,True,,survey-likert,,,,1,,3
,,,264,,,,,,Environment laws,1895236,,,0.0-20.0,,4366,"{""Q0"":4}",40,A114INA2S32A8L:32EYX73OY1RIXMN12R48LRNYQB1UR7,,False,,survey-likert,,,,1,,3
,,,265,,,,,,Affirmative action,1899246,,,0.0-21.0,,4007,"{""Q0"":3}",41,A114INA2S32A8L:32EYX73OY1RIXMN12R48LRNYQB1UR7,,True,,survey-likert,,,,1,,3
,,,266,,,,,,Death penalty,1902536,,,0.0-22.0,,3288,"{""Q0"":6}",42,A114INA2S32A8L:32EYX73OY1RIXMN12R48LRNYQB1UR7,,False,,survey-likert,,,,1,,3
,,,267,,,,,,Iraq,1906685,,,0.0-23.0,,4148,"{""Q0"":0}",43,A114INA2S32A8L:32EYX73OY1RIXMN12R48LRNYQB1UR7,,True,,survey-likert,,,,1,,3
,,,268,,,,,,,1909071,,,0.0-24.0,,2384,"{""Q0"":""Yes""}",44,A114INA2S32A8L:32EYX73OY1RIXMN12R48LRNYQB1UR7,,,,survey-multi-choice,,,,1,,3
,,,269,,,,,,,1912893,,,0.0-25.0-0.0,,3820,"{""Q0"":5}",45,A114INA2S32A8L:32EYX73OY1RIXMN12R48LRNYQB1UR7,,,,survey-likert,,,,1,,3
,,,270,,,,,,,1919399,,,0.0-25.0-1.0,,6503,"{""Q0"":""0""}",46,A114INA2S32A8L:32EYX73OY1RIXMN12R48LRNYQB1UR7,,,,survey-text,,,,1,,3
,,,271,,,,,,,1922960,,,0.0-26.0,,3558,"{""Q0"":""0""}",47,A114INA2S32A8L:32EYX73OY1RIXMN12R48LRNYQB1UR7,,,,survey-text,,,,1,,3
,,,272,,,,,,,1930616,,,0.0-27.0,32,7655,,48,A114INA2S32A8L:32EYX73OY1RIXMN12R48LRNYQB1UR7,,,,html-keyboard-response,,,"<div class=""center"">Thank you for participating in this study!<p>    In this study we were interested in examining reaction-times and     precision in a dynamic environment.</p>    <p>Once you press the space bar, your results will be uploaded to the     server, and the HIT will complete. <b>This may take several minutes - do not     refresh or close your browser during this time.</b></p>    <p>Press the space bar to complete this HIT.</p></div>",1,,3
1,0.4,5,0,"{u'stim_duration': [34, 34, 34, 34, 33, 36, 33, 33, 32, 33, 33, 33, 33, 34, 34, 34, 34, 34, 34, 34, 34, 34, 34, 34, 19, 33, 34, 34, 35, 34, 34, 34, 34, 34, 34, 34, 34, 34, 34, None], u'mond_duration': [60, 66, 66, 66, 67, 66, 64, 67, 68, 67, 67, 67, 67, 66, 66, 66, 66, 66, 66, 66, 66, 66, 66, 66, 66, 83, 65, 66, 66, 65, 66, 66, 66, 66, 66, 66, 66, 66, 66, 66], u'nums': [0, 1, 2, 3, 4, 5, 6, 7, 8, 9, 10, 11, 12, 13, 14, 15, 16, 17, 18, 19, 20, 21, 22, 23, 24, 25, 26, 27, 28, 29, 30, 31, 32, 33, 34, 35, 36, 37, 38, 39]}",,900,0,100,,5505,0,0,0.0-0.0-0.0,-1,-1,,1,A11MCPY8W4U6FL:3TPWUS5F8AJRJONNFUTEEK99BIUWC7,4,,0,bRMS-test,1531945255352,,../static/images/f097.jpg,1,15,4
1,0.4,5,1,"{u'stim_duration': [32, 34, 33, 34, 34, 32, 33, 34, 33, 31, 32, 34, 33, 32, 33, 16, 33, 33, 26, 32, 34, 34, 32, 28, 33, 33, 35, 33, 33, 31, 33, 33, 33, 34, 33, 33, 34, 34, 33, None], u'mond_duration': [64, 67, 66, 67, 66, 67, 67, 67, 67, 69, 67, 67, 67, 67, 69, 100, 49, 68, 68, 74, 66, 67, 67, 71, 67, 67, 67, 65, 68, 69, 66, 67, 67, 67, 66, 67, 67, 66, 66, 67], u'nums': [0, 1, 2, 3, 4, 5, 6, 7, 8, 9, 10, 11, 12, 13, 14, 15, 16, 17, 18, 19, 20, 21, 22, 23, 24, 25, 26, 27, 28, 29, 30, 31, 32, 33, 34, 35, 36, 37, 38, 39]}",,900,0,100,,11013,0,0,0.0-0.0-1.0,-1,-1,,2,A11MCPY8W4U6FL:3TPWUS5F8AJRJONNFUTEEK99BIUWC7,4,,0,bRMS-test,1531945260895,,../static/images/f204.jpg,1,15,4
1,0.4,5,2,"{u'stim_duration': [33, 33, 33, 32, 33, 34, 33, 33, 33, 33, 33, 33, 33, 33, 33, 33, 33, 33, 33, 33, 33, 33, 33, 33, 33, 33, 33, 33, 32, 33, 33, 33, 33, 33, 33, 33, 33, 33, 33, None], u'mond_duration': [66, 67, 67, 67, 68, 66, 67, 67, 67, 67, 67, 67, 67, 67, 67, 67, 67, 67, 67, 67, 67, 67, 67, 67, 67, 67, 67, 67, 67, 68, 67, 67, 67, 67, 67, 67, 67, 67, 67, 67], u'nums': [0, 1, 2, 3, 4, 5, 6, 7, 8, 9, 10, 11, 12, 13, 14, 15, 16, 17, 18, 19, 20, 21, 22, 23, 24, 25, 26, 27, 28, 29, 30, 31, 32, 33, 34, 35, 36, 37, 38, 39]}",,900,0,100,,16576,1,0,0.0-0.0-2.0,-1,-1,,3,A11MCPY8W4U6FL:3TPWUS5F8AJRJONNFUTEEK99BIUWC7,4,,0,bRMS-test,1531945266381,,../static/images/f088.jpg,1,15,4
,,,3,,,,,,,37873,,,0.0-2.0,,,,4,A11MCPY8W4U6FL:3TPWUS5F8AJRJONNFUTEEK99BIUWC7,,,,fullscreen,,True,,1,,4
,,,4,,,,,,,50502,,,0.0-3.0-0.0,32,12628,,5,A11MCPY8W4U6FL:3TPWUS5F8AJRJONNFUTEEK99BIUWC7,,,,html-keyboard-response,,,"[u""<div class='center'>Welcome to the study!<br>     <p>Your participation will help us investigate human precision and reaction-times in dynamic environments.</p>    <p>Please read the instructions carefully.</p>    <p align='center'><i>Press the space bar to continue.</i></p></div>""]",1,,4
,,,5,,,,,,,59269,,,0.0-3.0-1.0,32,8766,,6,A11MCPY8W4U6FL:3TPWUS5F8AJRJONNFUTEEK99BIUWC7,,,,html-keyboard-response,,,"[u""<div class='center'><p>We will begin by calibrating the experiment       for the size of your screen.</p>      <p>After this short calibration, we will continue to the main task for       this study.</p>      <p align='center'><i>Press the space bar to continue.</i></p></div>""]",1,,4
,,,6,,,,,,,103148,,,0.0-3.0-2.0,32,43878,,7,A11MCPY8W4U6FL:3TPWUS5F8AJRJONNFUTEEK99BIUWC7,,,,html-keyboard-response,,,"[u""<div class='center'><p>For the calibration stage, you will need a coin.</p>      <p>Any US coin will do.</p>      <p align='center'><i>Press the space bar to continue.</i></p></div>""]",1,,4
,,,7,,,,,,,111845,,,0.0-3.0-3.0,32,8697,,8,A11MCPY8W4U6FL:3TPWUS5F8AJRJONNFUTEEK99BIUWC7,,,,html-keyboard-response,,,"[u""<div class='center'><img src='/static/images/coin_demo.jpg' height='400'></img>      <p>You will be asked to position the coin      as shown in the picture. You will place it against your screen,      within an empty circle presented to you.</p>      <p align='center'><i>Press the space bar to continue.</i></p></div>""]",1,,4
,,,8,,,,,,,116381,,,0.0-3.0-4.0,32,4535,,9,A11MCPY8W4U6FL:3TPWUS5F8AJRJONNFUTEEK99BIUWC7,,,,html-keyboard-response,,,"[u""<div class='center'><p>Using the up and down arrow keys,       you will then adjust the size of the empty circle, so that it matches the       size of your coin.</p>      <p align='center'><i>Press the space bar to continue.</i></p></div>""]",1,,4
,,,9,,,,,,,122637,,,0.0-3.0-5.0,32,6254,,10,A11MCPY8W4U6FL:3TPWUS5F8AJRJONNFUTEEK99BIUWC7,,,,html-keyboard-response,,,"[u""<div class='center'><p>Take your time in doing so, as this measurement      will be used throughout the study to make sure images are presented to       you in their correct size.</p>      <p>When you are done adjusting the circle size, press the space bar to       continue to the main task.      <p align='center'><i>Press the space bar to continue.</i></p></div>""]",1,,4
,,,10,,,,,,,125885,,,0.0-3.0-6.0,32,3248,,11,A11MCPY8W4U6FL:3TPWUS5F8AJRJONNFUTEEK99BIUWC7,,,,html-keyboard-response,,,"[u""<div class='center'><p>Please have a coin at hand.</p>      <p>Press the space bar to start the calibration stage.</p></div>""]",1,,4
,,,11,,1,,,,,136192,,,0.0-4.0-0.0-0.0,,10306,,12,A11MCPY8W4U6FL:3TPWUS5F8AJRJONNFUTEEK99BIUWC7,,,,html-button-response,,,"Using the mouse, select the coin you would like to use:",1,,4
,,,12,,,,,,,148077,,,0.0-4.0-0.0-1.0-0.0,40,11884,,13,A11MCPY8W4U6FL:3TPWUS5F8AJRJONNFUTEEK99BIUWC7,,,,html-keyboard-response,,,"<svg style=""block: inline"" width=""800"" height=""300"">  <circle cx=""200"" cy=""207.582"" r=""42.418"" stroke=""black"" stroke-width=""2"" fill=""grey"" />  <line x1=""0"" y1=""250"" x2=""1000"" y2=""250"" style=""stroke:black;stroke-width:2"" />  <image x=""557.582"" y=""165.164"" width=""84.836"" height=""84.836"" style:""block: inline"" xlink:href=""/static/images/Nickel.png""></image>    <circle cx=""600"" cy=""207.582"" r=""42.418"" stroke=""black"" stroke-width=""2"" fill-opacity=""0"" /></svg>",1,,4
,,,13,,,,,,,148324,,,0.0-4.0-0.0-1.1-0.1,40,245,,14,A11MCPY8W4U6FL:3TPWUS5F8AJRJONNFUTEEK99BIUWC7,,,,html-keyboard-response,,,"<svg style=""block: inline"" width=""800"" height=""300"">  <circle cx=""200"" cy=""209.487"" r=""40.513"" stroke=""black"" stroke-width=""2"" fill=""grey"" />  <line x1=""0"" y1=""250"" x2=""1000"" y2=""250"" style=""stroke:black;stroke-width:2"" />  <image x=""559.487"" y=""168.974"" width=""81.026"" height=""81.026"" style:""block: inline"" xlink:href=""/static/images/Nickel.png""></image>    <circle cx=""600"" cy=""209.487"" r=""40.513"" stroke=""black"" stroke-width=""2"" fill-opacity=""0"" /></svg>",1,,4
,,,14,,,,,,,148556,,,0.0-4.0-0.0-1.2-0.2,40,231,,15,A11MCPY8W4U6FL:3TPWUS5F8AJRJONNFUTEEK99BIUWC7,,,,html-keyboard-response,,,"<svg style=""block: inline"" width=""800"" height=""300"">  <circle cx=""200"" cy=""211.392"" r=""38.608000000000004"" stroke=""black"" stroke-width=""2"" fill=""grey"" />  <line x1=""0"" y1=""250"" x2=""1000"" y2=""250"" style=""stroke:black;stroke-width:2"" />  <image x=""561.392"" y=""172.784"" width=""77.21600000000001"" height=""77.21600000000001"" style:""block: inline"" xlink:href=""/static/images/Nickel.png""></image>    <circle cx=""600"" cy=""211.392"" r=""38.608000000000004"" stroke=""black"" stroke-width=""2"" fill-opacity=""0"" /></svg>",1,,4
,,,15,,,,,,,149516,,,0.0-4.0-0.0-1.3-0.3,40,958,,16,A11MCPY8W4U6FL:3TPWUS5F8AJRJONNFUTEEK99BIUWC7,,,,html-keyboard-response,,,"<svg style=""block: inline"" width=""800"" height=""300"">  <circle cx=""200"" cy=""213.297"" r=""36.703"" stroke=""black"" stroke-width=""2"" fill=""grey"" />  <line x1=""0"" y1=""250"" x2=""1000"" y2=""250"" style=""stroke:black;stroke-width:2"" />  <image x=""563.297"" y=""176.594"" width=""73.406"" height=""73.406"" style:""block: inline"" xlink:href=""/static/images/Nickel.png""></image>    <circle cx=""600"" cy=""213.297"" r=""36.703"" stroke=""black"" stroke-width=""2"" fill-opacity=""0"" /></svg>",1,,4
,,,16,,,,,,,158060,,,0.0-4.0-0.0-1.4-0.4,32,8543,,17,A11MCPY8W4U6FL:3TPWUS5F8AJRJONNFUTEEK99BIUWC7,,,,html-keyboard-response,,,"<svg style=""block: inline"" width=""800"" height=""300"">  <circle cx=""200"" cy=""215.202"" r=""34.798"" stroke=""black"" stroke-width=""2"" fill=""grey"" />  <line x1=""0"" y1=""250"" x2=""1000"" y2=""250"" style=""stroke:black;stroke-width:2"" />  <image x=""565.202"" y=""180.404"" width=""69.596"" height=""69.596"" style:""block: inline"" xlink:href=""/static/images/Nickel.png""></image>    <circle cx=""600"" cy=""215.202"" r=""34.798"" stroke=""black"" stroke-width=""2"" fill-opacity=""0"" /></svg>",1,,4
,,,17,,,,,,,162436,,,0.0-4.0-1.0,32,4375,,18,A11MCPY8W4U6FL:3TPWUS5F8AJRJONNFUTEEK99BIUWC7,,,,html-keyboard-response,,,"<svg style=""block: inline"" width=""800"" height=""300"">  <circle cx=""200"" cy=""215.202"" r=""34.798"" stroke=""red"" stroke-width=""2"" fill=""grey"" />  <line x1=""0"" y1=""250"" x2=""1000"" y2=""250"" style=""stroke:red;stroke-width:2"" />  <image x=""565.202"" y=""180.404"" width=""69.596"" height=""69.596"" style:""block: inline"" xlink:href=""/static/images/Nickel.png""></image>    <circle cx=""600"" cy=""215.202"" r=""34.798"" stroke=""red"" stroke-width=""2"" fill-opacity=""0"" /></svg>",1,,4
,,,18,,,,,,,164156,,,0.0-5.0-0.0,32,1718,,19,A11MCPY8W4U6FL:3TPWUS5F8AJRJONNFUTEEK99BIUWC7,,,,html-keyboard-response,,,"[u""<p>We will now continue to the main task.</p>    <p align='center'><i>Press the space bar to continue.</i></p>""]",1,,4
,,,19,,,,,,,174326,,,0.0-5.0-1.0,32,10170,,20,A11MCPY8W4U6FL:3TPWUS5F8AJRJONNFUTEEK99BIUWC7,,,,html-keyboard-response,,,"[u""<div class = 'center'><p>You will be presented with rapidly       changing patterns of rectangles. Through these rectangles, female faces will appear. Your task will be to indicate the location of       the faces, or any part of them, as soon as they appear.</p>      <p align='center'><i>Press the space bar to continue.</i></p></div>""]",1,,4
,,,20,,,,,,,193989,,,0.0-5.0-2.0,32,19663,,21,A11MCPY8W4U6FL:3TPWUS5F8AJRJONNFUTEEK99BIUWC7,,,,html-keyboard-response,,,"[u""<div class = 'center'><p>If a woman's face appeared in the right half       of the screen, press the right key. If a woman's face appeared in the left half       of the screen, press the left key.</p>      <p align='center'><i>Press the space bar to continue.</i></p></div>""]",1,,4
,,,21,,,,,,,199717,,,0.0-5.0-3.0,32,5726,,22,A11MCPY8W4U6FL:3TPWUS5F8AJRJONNFUTEEK99BIUWC7,,,,html-keyboard-response,,,"[u""<div class = 'center'><p>Please perform this task as accurately       and quickly as you can.</p>      <p align='center'><i>Press the space bar to continue.</i></p></div>""]",1,,4
,,,22,,,,,,,209677,,,0.0-5.0-4.0,32,9959,,23,A11MCPY8W4U6FL:3TPWUS5F8AJRJONNFUTEEK99BIUWC7,,,,html-keyboard-response,,,"[u""<div class = 'center'><p>During the task, please focus your gaze at       the plus sign in the middle.<br>Even though the faces appear to the left        and right of the plus sign, it is important that you look at the plus         sign at all times.</p>        <p align='center'></i>Press the space bar to continue.</i></p></div>""]",1,,4
,,,23,,,,,,,221917,,,0.0-5.0-5.0,68,12238,,24,A11MCPY8W4U6FL:3TPWUS5F8AJRJONNFUTEEK99BIUWC7,,,,html-keyboard-response,,,"[u""<div class='center'>      <img src='/static/images/keys.jpg'></img>      <p>Place your fingers on the 'D' and 'K' keys as shown in the picture,       and press either one of these keys to continue.</p></div>""]",1,,4
,,,24,,,,,,,221919,,,0.0-6.0-0.0,,,,25,A11MCPY8W4U6FL:3TPWUS5F8AJRJONNFUTEEK99BIUWC7,,,,html-keyboard-response,,,,1,,4
,,,50,,,,,,,307734,,,0.0-7.0-0.0,68,6562,,26,A11MCPY8W4U6FL:3TPWUS5F8AJRJONNFUTEEK99BIUWC7,,,,html-keyboard-response,,,"[u""<div class = 'center'><p>You have completed the practice block.</p>  <p>You will now continue with the same task. The task may now be more   difficult.  You will have 3 short breaks. </p>    <p>Press either the 'D' or the 'K' keys to continue.</p></div>""]",1,,4
,,,51,,,,,,,313630,,,0.0-7.0-1.0,68,5895,,27,A11MCPY8W4U6FL:3TPWUS5F8AJRJONNFUTEEK99BIUWC7,,,,html-keyboard-response,,,"[u""<div class = 'center'><p>During the task, please focus your gaze at   the plus sign in the middle.<br>Even though the faces appear to the left    and right of the plus sign, it is important that you look at the plus     sign at all times.</p>    <p>Press either the 'D' or the 'K' keys to continue.</p></div>""]",1,,4
,,,102,,,,,,,451541,,,0.0-8.0-100.0,32,14305,,28,A11MCPY8W4U6FL:3TPWUS5F8AJRJONNFUTEEK99BIUWC7,,,,html-keyboard-response,,,"[u""<div class = 'center'><p>This is a break.</p>  <p>Press the space bar to continue.</p>""]",1,,4
,,,153,,,,,,,628381,,,0.0-8.0-202.0,32,2460,,29,A11MCPY8W4U6FL:3TPWUS5F8AJRJONNFUTEEK99BIUWC7,,,,html-keyboard-response,,,"[u""<div class = 'center'><p>This is a break.</p>  <p>Press the space bar to continue.</p>""]",1,,4
,,,204,,,,,,,785437,,,0.0-8.0-304.0,32,1571,,30,A11MCPY8W4U6FL:3TPWUS5F8AJRJONNFUTEEK99BIUWC7,,,,html-keyboard-response,,,"[u""<div class = 'center'><p>This is a break.</p>  <p>Press the space bar to continue.</p>""]",1,,4
,,,255,,,,,,,938365,,,0.0-9.0,32,6484,,31,A11MCPY8W4U6FL:3TPWUS5F8AJRJONNFUTEEK99BIUWC7,,,,html-keyboard-response,,,"<div class='center'>You have completed this part of the study.    <p>You will now answer several questions. Please answer them sincerely,     we remind you that your answers are completely annonymous.</p>    <p align='center'><i>Press the space bar to continue.</i></p></div>",1,,4
,,,256,,,,,,,950227,,,0.0-10.0,,11861,"{""Q0"":""41"",""Q1"":""no""}",32,A11MCPY8W4U6FL:3TPWUS5F8AJRJONNFUTEEK99BIUWC7,,,,survey-text,,,,1,,4
,,,257,,,,,,,956194,,,0.0-11.0,,5961,"{""Q0"":""Female"",""Q1"":""Right"",""Q2"":""Yes""}",33,A11MCPY8W4U6FL:3TPWUS5F8AJRJONNFUTEEK99BIUWC7,,,,survey-multi-choice,,,,1,,4
,,,258,,,,,,,961870,,,0.0-12.0,,5673,"{""Q0"":4}",34,A11MCPY8W4U6FL:3TPWUS5F8AJRJONNFUTEEK99BIUWC7,,,,survey-likert,,,,1,,4
,,,259,,,,,,,1091470,,,0.0-13.0,,129598,"{""Q0"":""I had to keep refocusing on the plus symbol which wasn't as easy to do as one would think, especially when there were a lot of faces one after another on one side. I also found that I had to clear my mind completely. Every time I thought about one I had gotten wrong, I would get nervous and get another one wrong. I had to force myself to stop thinking.""}",35,A11MCPY8W4U6FL:3TPWUS5F8AJRJONNFUTEEK99BIUWC7,,,,survey-text,,,,1,,4
,,,260,,,,,,,1101287,,,0.0-14.0,,9811,"{""Q0"":""Bisexual"",""Q1"":""Mostly attracted to males""}",36,A11MCPY8W4U6FL:3TPWUS5F8AJRJONNFUTEEK99BIUWC7,,,,survey-multi-choice,,,,1,,4
,,,261,,,,,,,1108589,,,0.0-15.0,32,7301,,37,A11MCPY8W4U6FL:3TPWUS5F8AJRJONNFUTEEK99BIUWC7,,,,html-keyboard-response,,,"<div class='center'><p>You will now be presented with a few more statements.	Please read each statement carfully, and indicate the degree to which you agree or disagree with it.</p>    <p>We remind you that your answers are completely annonymous.</p>    <p align='center'><i>Press the space bar to continue.</i></p></div>",1,,4
,,,262,,,,,,Homosexuals,1112588,,,0.0-16.0,,3997,"{""Q0"":6}",38,A11MCPY8W4U6FL:3TPWUS5F8AJRJONNFUTEEK99BIUWC7,,True,,survey-likert,,,,1,,4
,,,263,,,,,,Environment laws,1129095,,,0.0-17.0,,16506,"{""Q0"":2}",39,A11MCPY8W4U6FL:3TPWUS5F8AJRJONNFUTEEK99BIUWC7,,False,,survey-likert,,,,1,,4
,,,264,,,,,,Gun control,1142380,,,0.0-18.0,,13283,"{""Q0"":2}",40,A11MCPY8W4U6FL:3TPWUS5F8AJRJONNFUTEEK99BIUWC7,,True,,survey-likert,,,,1,,4
,,,265,,,,,,Iraq,1146422,,,0.0-19.0,,4040,"{""Q0"":6}",41,A11MCPY8W4U6FL:3TPWUS5F8AJRJONNFUTEEK99BIUWC7,,True,,survey-likert,,,,1,,4
,,,266,,,,,,Stem Cell,1155006,,,0.0-20.0,,8583,"{""Q0"":5}",42,A11MCPY8W4U6FL:3TPWUS5F8AJRJONNFUTEEK99BIUWC7,,True,,survey-likert,,,,1,,4
,,,267,,,,,,Affirmative action,1162211,,,0.0-21.0,,7205,"{""Q0"":4}",43,A11MCPY8W4U6FL:3TPWUS5F8AJRJONNFUTEEK99BIUWC7,,True,,survey-likert,,,,1,,4
,,,268,,,,,,Death penalty,1171879,,,0.0-22.0,,9665,"{""Q0"":3}",44,A11MCPY8W4U6FL:3TPWUS5F8AJRJONNFUTEEK99BIUWC7,,False,,survey-likert,,,,1,,4
,,,269,,,,,,Abortion,1180286,,,0.0-23.0,,8405,"{""Q0"":5}",45,A11MCPY8W4U6FL:3TPWUS5F8AJRJONNFUTEEK99BIUWC7,,True,,survey-likert,,,,1,,4
,,,270,,,,,,,1183438,,,0.0-24.0,,3149,"{""Q0"":""Yes""}",46,A11MCPY8W4U6FL:3TPWUS5F8AJRJONNFUTEEK99BIUWC7,,,,survey-multi-choice,,,,1,,4
,,,271,,,,,,,1188536,,,0.0-25.0-0.0,,5097,"{""Q0"":4}",47,A11MCPY8W4U6FL:3TPWUS5F8AJRJONNFUTEEK99BIUWC7,,,,survey-likert,,,,1,,4
,,,272,,,,,,,1196150,,,0.0-25.0-1.0,,7613,"{""Q0"":""0""}",48,A11MCPY8W4U6FL:3TPWUS5F8AJRJONNFUTEEK99BIUWC7,,,,survey-text,,,,1,,4
,,,273,,,,,,,1203396,,,0.0-26.0,,7245,"{""Q0"":""0""}",49,A11MCPY8W4U6FL:3TPWUS5F8AJRJONNFUTEEK99BIUWC7,,,,survey-text,,,,1,,4
,,,274,,,,,,,1217102,,,0.0-27.0,32,13704,,50,A11MCPY8W4U6FL:3TPWUS5F8AJRJONNFUTEEK99BIUWC7,,,,html-keyboard-response,,,"<div class=""center"">Thank you for participating in this study!<p>    In this study we were interested in examining reaction-times and     precision in a dynamic environment.</p>    <p>Once you press the space bar, your results will be uploaded to the     server, and the HIT will complete. <b>This may take several minutes - do not     refresh or close your browser during this time.</b></p>    <p>Press the space bar to complete this HIT.</p></div>",1,,4
1,0.4,5,0,"{u'stim_duration': [16, 49, 33, 50, 34, 32, 47, 32, 34, 55, 22, 32, 35, 17, 50, 33, 34, 34, 33, 34, 32, 33, 49, 16, 33, 37, 32, 33, 34, 34, 50, 34, 34, 33, 34, 34, 33, 32, 33, 33, 0], u'mond_duration': [59, 51, 51, 68, 48, 68, 69, 51, 67, 66, 76, 48, 69, 81, 66, 51, 66, 82, 50, 67, 68, 66, 67, 68, 68, 67, 63, 67, 83, 49, 67, 49, 67, 67, 66, 66, 66, 68, 67, 67, None], u'nums': [0, 1, 2, 3, 4, 5, 6, 7, 8, 9, 10, 11, 12, 13, 14, 15, 16, 17, 18, 19, 20, 21, 22, 23, 24, 25, 26, 27, 28, 29, 30, 31, 32, 33, 34, 35, 36, 37, 38, 39, 40]}",,900,0,100,,6184,0,2,0.0-0.0-0.0,-1,-1,,1,A124E03UMDZAA9:3WMINLGALCLUCBKKEPXMWVCIGCUAC0,4,,0,bRMS-test,1531525744369,,../static/images/m068.jpg,1,15,5
1,0.4,5,1,"{u'stim_duration': [33, 34, 32, 33, 33, 35, 52, 50, 34, None], u'mond_duration': [64, 66, 67, 68, 66, 67, 71, 43, 50, 65], u'nums': [0, 1, 2, 3, 4, 5, 6, 7, 8, 9]}",,900,0,100,,12263,0,2,0.0-0.0-1.0,-1,-1,,2,A124E03UMDZAA9:3WMINLGALCLUCBKKEPXMWVCIGCUAC0,4,,0,bRMS-test,1531525750560,,../static/images/m247.jpg,1,15,5
1,0.4,5,2,"{u'stim_duration': [17, 33, 40, 17, 57, 43, 17, 0, 34, 47, 16, None], u'mond_duration': [91, 66, 57, 86, 66, 33, 69, 100, 82, 52, 68, 287], u'nums': [0, 1, 2, 3, 4, 5, 6, 7, 8, 9, 10, 11]}",,900,1,100,,18454,1,2,0.0-0.0-2.0,-1,-1,,3,A124E03UMDZAA9:3WMINLGALCLUCBKKEPXMWVCIGCUAC0,4,,0,bRMS-test,1531525756642,,../static/images/m243.jpg,1,15,5
,,,3,,,,,,,48717,,,0.0-2.0,,,,4,A124E03UMDZAA9:3WMINLGALCLUCBKKEPXMWVCIGCUAC0,,,,fullscreen,,True,,1,,5
,,,4,,,,,,,60189,,,0.0-3.0-0.0,32,11469,,5,A124E03UMDZAA9:3WMINLGALCLUCBKKEPXMWVCIGCUAC0,,,,html-keyboard-response,,,"[u""<div class='center'>Welcome to the study!<br>     <p>Your participation will help us investigate human precision and reaction-times in dynamic environments.</p>    <p>Please read the instructions carefully.</p>    <p align='center'><i>Press the space bar to continue.</i></p></div>""]",1,,5
,,,5,,,,,,,62147,,,0.0-3.0-1.0,32,1958,,6,A124E03UMDZAA9:3WMINLGALCLUCBKKEPXMWVCIGCUAC0,,,,html-keyboard-response,,,"[u""<div class='center'><p>We will begin by calibrating the experiment       for the size of your screen.</p>      <p>After this short calibration, we will continue to the main task for       this study.</p>      <p align='center'><i>Press the space bar to continue.</i></p></div>""]",1,,5
,,,6,,,,,,,64550,,,0.0-3.0-2.0,32,2401,,7,A124E03UMDZAA9:3WMINLGALCLUCBKKEPXMWVCIGCUAC0,,,,html-keyboard-response,,,"[u""<div class='center'><p>For the calibration stage, you will need a coin.</p>      <p>Any US coin will do.</p>      <p align='center'><i>Press the space bar to continue.</i></p></div>""]",1,,5
,,,7,,,,,,,67517,,,0.0-3.0-3.0,32,2966,,8,A124E03UMDZAA9:3WMINLGALCLUCBKKEPXMWVCIGCUAC0,,,,html-keyboard-response,,,"[u""<div class='center'><img src='/static/images/coin_demo.jpg' height='400'></img>      <p>You will be asked to position the coin      as shown in the picture. You will place it against your screen,      within an empty circle presented to you.</p>      <p align='center'><i>Press the space bar to continue.</i></p></div>""]",1,,5
,,,8,,,,,,,68837,,,0.0-3.0-4.0,32,1319,,9,A124E03UMDZAA9:3WMINLGALCLUCBKKEPXMWVCIGCUAC0,,,,html-keyboard-response,,,"[u""<div class='center'><p>Using the up and down arrow keys,       you will then adjust the size of the empty circle, so that it matches the       size of your coin.</p>      <p align='center'><i>Press the space bar to continue.</i></p></div>""]",1,,5
,,,9,,,,,,,70087,,,0.0-3.0-5.0,32,1250,,10,A124E03UMDZAA9:3WMINLGALCLUCBKKEPXMWVCIGCUAC0,,,,html-keyboard-response,,,"[u""<div class='center'><p>Take your time in doing so, as this measurement      will be used throughout the study to make sure images are presented to       you in their correct size.</p>      <p>When you are done adjusting the circle size, press the space bar to       continue to the main task.      <p align='center'><i>Press the space bar to continue.</i></p></div>""]",1,,5
,,,10,,,,,,,71061,,,0.0-3.0-6.0,32,974,,11,A124E03UMDZAA9:3WMINLGALCLUCBKKEPXMWVCIGCUAC0,,,,html-keyboard-response,,,"[u""<div class='center'><p>Please have a coin at hand.</p>      <p>Press the space bar to start the calibration stage.</p></div>""]",1,,5
,,,11,,3,,,,,75827,,,0.0-4.0-0.0-0.0,,4763,,12,A124E03UMDZAA9:3WMINLGALCLUCBKKEPXMWVCIGCUAC0,,,,html-button-response,,,"Using the mouse, select the coin you would like to use:",1,,5
,,,12,,,,,,,191571,,,0.0-4.0-0.0-1.0-0.0,32,115743,,13,A124E03UMDZAA9:3WMINLGALCLUCBKKEPXMWVCIGCUAC0,,,,html-keyboard-response,,,"<svg style=""block: inline"" width=""800"" height=""300"">  <circle cx=""200"" cy=""201.486"" r=""48.514"" stroke=""black"" stroke-width=""2"" fill=""grey"" />  <line x1=""0"" y1=""250"" x2=""1000"" y2=""250"" style=""stroke:black;stroke-width:2"" />  <image x=""551.486"" y=""152.97199999999998"" width=""97.028"" height=""97.028"" style:""block: inline"" xlink:href=""/static/images/Quarter.png""></image>    <circle cx=""600"" cy=""201.486"" r=""48.514"" stroke=""black"" stroke-width=""2"" fill-opacity=""0"" /></svg>",1,,5
,,,13,,,,,,,194780,,,0.0-4.0-1.0,32,3206,,14,A124E03UMDZAA9:3WMINLGALCLUCBKKEPXMWVCIGCUAC0,,,,html-keyboard-response,,,"<svg style=""block: inline"" width=""800"" height=""300"">  <circle cx=""200"" cy=""201.486"" r=""48.514"" stroke=""red"" stroke-width=""2"" fill=""grey"" />  <line x1=""0"" y1=""250"" x2=""1000"" y2=""250"" style=""stroke:red;stroke-width:2"" />  <image x=""551.486"" y=""152.97199999999998"" width=""97.028"" height=""97.028"" style:""block: inline"" xlink:href=""/static/images/Quarter.png""></image>    <circle cx=""600"" cy=""201.486"" r=""48.514"" stroke=""red"" stroke-width=""2"" fill-opacity=""0"" /></svg>",1,,5
,,,14,,,,,,,196477,,,0.0-5.0-0.0,32,1695,,15,A124E03UMDZAA9:3WMINLGALCLUCBKKEPXMWVCIGCUAC0,,,,html-keyboard-response,,,"[u""<p>We will now continue to the main task.</p>    <p align='center'><i>Press the space bar to continue.</i></p>""]",1,,5
,,,15,,,,,,,201725,,,0.0-5.0-1.0,32,5247,,16,A124E03UMDZAA9:3WMINLGALCLUCBKKEPXMWVCIGCUAC0,,,,html-keyboard-response,,,"[u""<div class = 'center'><p>You will be presented with rapidly       changing patterns of rectangles. Through these rectangles, male faces will appear. Your task will be to indicate the location of       the faces, or any part of them, as soon as they appear.</p>      <p align='center'><i>Press the space bar to continue.</i></p></div>""]",1,,5
,,,16,,,,,,,203956,,,0.0-5.0-2.0,32,2231,,17,A124E03UMDZAA9:3WMINLGALCLUCBKKEPXMWVCIGCUAC0,,,,html-keyboard-response,,,"[u""<div class = 'center'><p>If a man's face appeared in the right half       of the screen, press the right key. If a man's face appeared in the left half       of the screen, press the left key.</p>      <p align='center'><i>Press the space bar to continue.</i></p></div>""]",1,,5
,,,17,,,,,,,205639,,,0.0-5.0-3.0,32,1681,,18,A124E03UMDZAA9:3WMINLGALCLUCBKKEPXMWVCIGCUAC0,,,,html-keyboard-response,,,"[u""<div class = 'center'><p>Please perform this task as accurately       and quickly as you can.</p>      <p align='center'><i>Press the space bar to continue.</i></p></div>""]",1,,5
,,,18,,,,,,,207151,,,0.0-5.0-4.0,32,1511,,19,A124E03UMDZAA9:3WMINLGALCLUCBKKEPXMWVCIGCUAC0,,,,html-keyboard-response,,,"[u""<div class = 'center'><p>During the task, please focus your gaze at       the plus sign in the middle.<br>Even though the faces appear to the left        and right of the plus sign, it is important that you look at the plus         sign at all times.</p>        <p align='center'></i>Press the space bar to continue.</i></p></div>""]",1,,5
,,,19,,,,,,,209926,,,0.0-5.0-5.0,68,2774,,20,A124E03UMDZAA9:3WMINLGALCLUCBKKEPXMWVCIGCUAC0,,,,html-keyboard-response,,,"[u""<div class='center'>      <img src='/static/images/keys.jpg'></img>      <p>Place your fingers on the 'D' and 'K' keys as shown in the picture,       and press either one of these keys to continue.</p></div>""]",1,,5
,,,20,,,,,,,209928,,,0.0-6.0-0.0,,,,21,A124E03UMDZAA9:3WMINLGALCLUCBKKEPXMWVCIGCUAC0,,,,html-keyboard-response,,,,1,,5
,,,46,,,,,,,301482,,,0.0-7.0-0.0,68,4953,,22,A124E03UMDZAA9:3WMINLGALCLUCBKKEPXMWVCIGCUAC0,,,,html-keyboard-response,,,"[u""<div class = 'center'><p>You have completed the practice block.</p>  <p>You will now continue with the same task. The task may now be more   difficult.  You will have 3 short breaks. </p>    <p>Press either the 'D' or the 'K' keys to continue.</p></div>""]",1,,5
,,,47,,,,,,,301505,,,0.0-7.0-1.0,75,22,,23,A124E03UMDZAA9:3WMINLGALCLUCBKKEPXMWVCIGCUAC0,,,,html-keyboard-response,,,"[u""<div class = 'center'><p>During the task, please focus your gaze at   the plus sign in the middle.<br>Even though the faces appear to the left    and right of the plus sign, it is important that you look at the plus     sign at all times.</p>    <p>Press either the 'D' or the 'K' keys to continue.</p></div>""]",1,,5
,,,98,,,,,,,443060,,,0.0-8.0-100.0,32,2682,,24,A124E03UMDZAA9:3WMINLGALCLUCBKKEPXMWVCIGCUAC0,,,,html-keyboard-response,,,"[u""<div class = 'center'><p>This is a break.</p>  <p>Press the space bar to continue.</p>""]",1,,5
,,,103,,,,,,,459486,,,0.0-8.0-109.0-0.0,32,3934,,25,A124E03UMDZAA9:3WMINLGALCLUCBKKEPXMWVCIGCUAC0,,,,html-keyboard-response,,,<div class = 'center'><p>It seems that you have pressed the wrong   key many times recently.</p>  <p>Please perform the task as accurately and as quickly as you can.</p>  <p>Press the space bar to continue.</p>,1,,5
,,,135,,,,,,,542640,,,0.0-8.0-171.0-0.0,32,1198,,26,A124E03UMDZAA9:3WMINLGALCLUCBKKEPXMWVCIGCUAC0,,,,html-keyboard-response,,,<div class = 'center'><p>It seems that you have pressed the wrong   key many times recently.</p>  <p>Please perform the task as accurately and as quickly as you can.</p>  <p>Press the space bar to continue.</p>,1,,5
,,,151,,,,,,,584718,,,0.0-8.0-202.0,32,940,,27,A124E03UMDZAA9:3WMINLGALCLUCBKKEPXMWVCIGCUAC0,,,,html-keyboard-response,,,"[u""<div class = 'center'><p>This is a break.</p>  <p>Press the space bar to continue.</p>""]",1,,5
,,,202,,,,,,,746882,,,0.0-8.0-304.0,32,1186,,28,A124E03UMDZAA9:3WMINLGALCLUCBKKEPXMWVCIGCUAC0,,,,html-keyboard-response,,,"[u""<div class = 'center'><p>This is a break.</p>  <p>Press the space bar to continue.</p>""]",1,,5
,,,253,,,,,,,916991,,,0.0-9.0,32,2082,,29,A124E03UMDZAA9:3WMINLGALCLUCBKKEPXMWVCIGCUAC0,,,,html-keyboard-response,,,"<div class='center'>You have completed this part of the study.    <p>You will now answer several questions. Please answer them sincerely,     we remind you that your answers are completely annonymous.</p>    <p align='center'><i>Press the space bar to continue.</i></p></div>",1,,5
,,,254,,,,,,,923412,,,0.0-10.0,,6419,"{""Q0"":""34"",""Q1"":""na""}",30,A124E03UMDZAA9:3WMINLGALCLUCBKKEPXMWVCIGCUAC0,,,,survey-text,,,,1,,5
,,,255,,,,,,,930474,,,0.0-11.0,,7058,"{""Q0"":""Male"",""Q1"":""Right"",""Q2"":""Yes""}",31,A124E03UMDZAA9:3WMINLGALCLUCBKKEPXMWVCIGCUAC0,,,,survey-multi-choice,,,,1,,5
,,,256,,,,,,,934277,,,0.0-12.0,,3802,"{""Q0"":4}",32,A124E03UMDZAA9:3WMINLGALCLUCBKKEPXMWVCIGCUAC0,,,,survey-likert,,,,1,,5
,,,257,,,,,,,936737,,,0.0-13.0,,2459,"{""Q0"":""na""}",33,A124E03UMDZAA9:3WMINLGALCLUCBKKEPXMWVCIGCUAC0,,,,survey-text,,,,1,,5
,,,258,,,,,,,941481,,,0.0-14.0,,4741,"{""Q0"":""Heterosexual or straight"",""Q1"":""Only attracted to females""}",34,A124E03UMDZAA9:3WMINLGALCLUCBKKEPXMWVCIGCUAC0,,,,survey-multi-choice,,,,1,,5
,,,259,,,,,,,942746,,,0.0-15.0,32,1264,,35,A124E03UMDZAA9:3WMINLGALCLUCBKKEPXMWVCIGCUAC0,,,,html-keyboard-response,,,"<div class='center'><p>You will now be presented with a few more statements.	Please read each statement carfully, and indicate the degree to which you agree or disagree with it.</p>    <p>We remind you that your answers are completely annonymous.</p>    <p align='center'><i>Press the space bar to continue.</i></p></div>",1,,5
,,,260,,,,,,Stem Cell,947060,,,0.0-16.0,,4312,"{""Q0"":6}",36,A124E03UMDZAA9:3WMINLGALCLUCBKKEPXMWVCIGCUAC0,,True,,survey-likert,,,,1,,5
,,,261,,,,,,Affirmative action,960808,,,0.0-17.0,,13747,"{""Q0"":3}",37,A124E03UMDZAA9:3WMINLGALCLUCBKKEPXMWVCIGCUAC0,,True,,survey-likert,,,,1,,5
,,,262,,,,,,Gun control,965738,,,0.0-18.0,,4927,"{""Q0"":5}",38,A124E03UMDZAA9:3WMINLGALCLUCBKKEPXMWVCIGCUAC0,,True,,survey-likert,,,,1,,5
,,,263,,,,,,Death penalty,970711,,,0.0-19.0,,4972,"{""Q0"":5}",39,A124E03UMDZAA9:3WMINLGALCLUCBKKEPXMWVCIGCUAC0,,False,,survey-likert,,,,1,,5
,,,264,,,,,,Homosexuals,975169,,,0.0-20.0,,4457,"{""Q0"":6}",40,A124E03UMDZAA9:3WMINLGALCLUCBKKEPXMWVCIGCUAC0,,True,,survey-likert,,,,1,,5
,,,265,,,,,,Environment laws,978333,,,0.0-21.0,,3164,"{""Q0"":4}",41,A124E03UMDZAA9:3WMINLGALCLUCBKKEPXMWVCIGCUAC0,,False,,survey-likert,,,,1,,5
,,,266,,,,,,Iraq,981704,,,0.0-22.0,,3370,"{""Q0"":6}",42,A124E03UMDZAA9:3WMINLGALCLUCBKKEPXMWVCIGCUAC0,,True,,survey-likert,,,,1,,5
,,,267,,,,,,Abortion,986424,,,0.0-23.0,,4720,"{""Q0"":4}",43,A124E03UMDZAA9:3WMINLGALCLUCBKKEPXMWVCIGCUAC0,,True,,survey-likert,,,,1,,5
,,,268,,,,,,,990308,,,0.0-24.0,,3882,"{""Q0"":""Yes""}",44,A124E03UMDZAA9:3WMINLGALCLUCBKKEPXMWVCIGCUAC0,,,,survey-multi-choice,,,,1,,5
,,,269,,,,,,,993849,,,0.0-25.0-0.0,,3539,"{""Q0"":4}",45,A124E03UMDZAA9:3WMINLGALCLUCBKKEPXMWVCIGCUAC0,,,,survey-likert,,,,1,,5
,,,270,,,,,,,1000134,,,0.0-25.0-1.0,,6285,"{""Q0"":""0""}",46,A124E03UMDZAA9:3WMINLGALCLUCBKKEPXMWVCIGCUAC0,,,,survey-text,,,,1,,5
,,,271,,,,,,,1005061,,,0.0-26.0,,4926,"{""Q0"":""0""}",47,A124E03UMDZAA9:3WMINLGALCLUCBKKEPXMWVCIGCUAC0,,,,survey-text,,,,1,,5
,,,272,,,,,,,1009017,,,0.0-27.0,32,3954,,48,A124E03UMDZAA9:3WMINLGALCLUCBKKEPXMWVCIGCUAC0,,,,html-keyboard-response,,,"<div class=""center"">Thank you for participating in this study!<p>    In this study we were interested in examining reaction-times and     precision in a dynamic environment.</p>    <p>Once you press the space bar, your results will be uploaded to the     server, and the HIT will complete. <b>This may take several minutes - do not     refresh or close your browser during this time.</b></p>    <p>Press the space bar to complete this HIT.</p></div>",1,,5
1,0.4,5,0,"{u'stim_duration': [0, 34, 35, 34, 35, 35, 36, 33, 32, 33, 33, 33, 34, 35, 33, 34, 33, 33, 33, 33, 32, 33, 33, 32, 32, 33, 32, 33, 34, 34, 33, 33, 33, 35, 33, 32, 33, 34, 33, 32, 0], u'mond_duration': [60, 65, 66, 66, 66, 65, 65, 63, 68, 68, 66, 68, 66, 66, 65, 67, 66, 67, 67, 67, 69, 66, 68, 67, 68, 67, 69, 66, 67, 66, 67, 67, 66, 67, 65, 69, 66, 67, 67, 68, None], u'nums': [0, 1, 2, 3, 4, 5, 6, 7, 8, 9, 10, 11, 12, 13, 14, 15, 16, 17, 18, 19, 20, 21, 22, 23, 24, 25, 26, 27, 28, 29, 30, 31, 32, 33, 34, 35, 36, 37, 38, 39, 40]}",,900,0,100,,6828,0,0,0.0-0.0-0.0,-1,-1,,1,A12A5GVJX5RZC4:3X87C8JFV7T268GX07K810V54DZSQA,4,,0,bRMS-test,1531360302176,,../static/images/f236.jpg,1,15,6
1,0.4,5,1,"{u'stim_duration': [38, 33, 33, 33, 33, 33, 32, 33, 34, 33, 34, 33, 33, 33, 33, 33, 33, 32, 33, 32, 33, 33, 35, 35, 34, 35, 35, 35, 32, 33, 34, 35, 34, 34, 34, 35, 33, 33, 33, None], u'mond_duration': [67, 60, 66, 67, 68, 67, 67, 67, 67, 67, 66, 66, 67, 67, 68, 67, 67, 67, 67, 68, 67, 67, 66, 65, 65, 66, 65, 65, 67, 67, 66, 66, 65, 66, 66, 66, 66, 67, 67, 67], u'nums': [0, 1, 2, 3, 4, 5, 6, 7, 8, 9, 10, 11, 12, 13, 14, 15, 16, 17, 18, 19, 20, 21, 22, 23, 24, 25, 26, 27, 28, 29, 30, 31, 32, 33, 34, 35, 36, 37, 38, 39]}",,900,0,100,,13673,1,0,0.0-0.0-1.0,-1,-1,,2,A12A5GVJX5RZC4:3X87C8JFV7T268GX07K810V54DZSQA,4,,0,bRMS-test,1531360309066,,../static/images/f231.jpg,1,15,6
1,0.4,5,2,"{u'stim_duration': [34, 33, 34, 33, 35, 35, 34, 17, 34, 33, 33, 34, 32, 34, 35, 34, 33, 34, 33, 33, 35, 34, 34, 35, 34, 35, 35, 34, 33, 34, 35, 33, 34, 34, 34, 33, 33, 34, 34, None], u'mond_duration': [63, 66, 66, 67, 66, 65, 66, 82, 66, 68, 66, 66, 68, 67, 65, 65, 67, 66, 67, 67, 66, 65, 66, 66, 65, 66, 66, 65, 66, 66, 66, 66, 66, 67, 66, 66, 67, 66, 66, 67], u'nums': [0, 1, 2, 3, 4, 5, 6, 7, 8, 9, 10, 11, 12, 13, 14, 15, 16, 17, 18, 19, 20, 21, 22, 23, 24, 25, 26, 27, 28, 29, 30, 31, 32, 33, 34, 35, 36, 37, 38, 39]}",,900,0,100,,20264,0,0,0.0-0.0-2.0,-1,-1,,3,A12A5GVJX5RZC4:3X87C8JFV7T268GX07K810V54DZSQA,4,,0,bRMS-test,1531360315871,,../static/images/f149.jpg,1,15,6
,,,3,,,,,,,25514,,,0.0-2.0,,,,4,A12A5GVJX5RZC4:3X87C8JFV7T268GX07K810V54DZSQA,,,,fullscreen,,True,,1,,6
,,,4,,,,,,,33385,,,0.0-3.0-0.0,32,7870,,5,A12A5GVJX5RZC4:3X87C8JFV7T268GX07K810V54DZSQA,,,,html-keyboard-response,,,"[u""<div class='center'>Welcome to the study!<br>     <p>Your participation will help us investigate human precision and reaction-times in dynamic environments.</p>    <p>Please read the instructions carefully.</p>    <p align='center'><i>Press the space bar to continue.</i></p></div>""]",1,,6
,,,5,,,,,,,41803,,,0.0-3.0-1.0,32,8418,,6,A12A5GVJX5RZC4:3X87C8JFV7T268GX07K810V54DZSQA,,,,html-keyboard-response,,,"[u""<div class='center'><p>We will begin by calibrating the experiment       for the size of your screen.</p>      <p>After this short calibration, we will continue to the main task for       this study.</p>      <p align='center'><i>Press the space bar to continue.</i></p></div>""]",1,,6
,,,6,,,,,,,46006,,,0.0-3.0-2.0,32,4201,,7,A12A5GVJX5RZC4:3X87C8JFV7T268GX07K810V54DZSQA,,,,html-keyboard-response,,,"[u""<div class='center'><p>For the calibration stage, you will need a coin.</p>      <p>Any US coin will do.</p>      <p align='center'><i>Press the space bar to continue.</i></p></div>""]",1,,6
,,,7,,,,,,,57867,,,0.0-3.0-3.0,32,11861,,8,A12A5GVJX5RZC4:3X87C8JFV7T268GX07K810V54DZSQA,,,,html-keyboard-response,,,"[u""<div class='center'><img src='/static/images/coin_demo.jpg' height='400'></img>      <p>You will be asked to position the coin      as shown in the picture. You will place it against your screen,      within an empty circle presented to you.</p>      <p align='center'><i>Press the space bar to continue.</i></p></div>""]",1,,6
,,,8,,,,,,,60658,,,0.0-3.0-4.0,32,2791,,9,A12A5GVJX5RZC4:3X87C8JFV7T268GX07K810V54DZSQA,,,,html-keyboard-response,,,"[u""<div class='center'><p>Using the up and down arrow keys,       you will then adjust the size of the empty circle, so that it matches the       size of your coin.</p>      <p align='center'><i>Press the space bar to continue.</i></p></div>""]",1,,6
,,,9,,,,,,,67202,,,0.0-3.0-5.0,32,6543,,10,A12A5GVJX5RZC4:3X87C8JFV7T268GX07K810V54DZSQA,,,,html-keyboard-response,,,"[u""<div class='center'><p>Take your time in doing so, as this measurement      will be used throughout the study to make sure images are presented to       you in their correct size.</p>      <p>When you are done adjusting the circle size, press the space bar to       continue to the main task.      <p align='center'><i>Press the space bar to continue.</i></p></div>""]",1,,6
,,,10,,,,,,,70596,,,0.0-3.0-6.0,32,3394,,11,A12A5GVJX5RZC4:3X87C8JFV7T268GX07K810V54DZSQA,,,,html-keyboard-response,,,"[u""<div class='center'><p>Please have a coin at hand.</p>      <p>Press the space bar to start the calibration stage.</p></div>""]",1,,6
,,,11,,1,,,,,80783,,,0.0-4.0-0.0-0.0,,10185,,12,A12A5GVJX5RZC4:3X87C8JFV7T268GX07K810V54DZSQA,,,,html-button-response,,,"Using the mouse, select the coin you would like to use:",1,,6
,,,12,,,,,,,90750,,,0.0-4.0-0.0-1.0-0.0,38,9965,,13,A12A5GVJX5RZC4:3X87C8JFV7T268GX07K810V54DZSQA,,,,html-keyboard-response,,,"<svg style=""block: inline"" width=""800"" height=""300"">  <circle cx=""200"" cy=""207.582"" r=""42.418"" stroke=""black"" stroke-width=""2"" fill=""grey"" />  <line x1=""0"" y1=""250"" x2=""1000"" y2=""250"" style=""stroke:black;stroke-width:2"" />  <image x=""557.582"" y=""165.164"" width=""84.836"" height=""84.836"" style:""block: inline"" xlink:href=""/static/images/Nickel.png""></image>    <circle cx=""600"" cy=""207.582"" r=""42.418"" stroke=""black"" stroke-width=""2"" fill-opacity=""0"" /></svg>",1,,6
,,,13,,,,,,,92006,,,0.0-4.0-0.0-1.1-0.1,32,1254,,14,A12A5GVJX5RZC4:3X87C8JFV7T268GX07K810V54DZSQA,,,,html-keyboard-response,,,"<svg style=""block: inline"" width=""800"" height=""300"">  <circle cx=""200"" cy=""205.677"" r=""44.323"" stroke=""black"" stroke-width=""2"" fill=""grey"" />  <line x1=""0"" y1=""250"" x2=""1000"" y2=""250"" style=""stroke:black;stroke-width:2"" />  <image x=""555.677"" y=""161.35399999999998"" width=""88.646"" height=""88.646"" style:""block: inline"" xlink:href=""/static/images/Nickel.png""></image>    <circle cx=""600"" cy=""205.677"" r=""44.323"" stroke=""black"" stroke-width=""2"" fill-opacity=""0"" /></svg>",1,,6
,,,14,,,,,,,98517,,,0.0-4.0-1.0,32,6510,,15,A12A5GVJX5RZC4:3X87C8JFV7T268GX07K810V54DZSQA,,,,html-keyboard-response,,,"<svg style=""block: inline"" width=""800"" height=""300"">  <circle cx=""200"" cy=""205.677"" r=""44.323"" stroke=""red"" stroke-width=""2"" fill=""grey"" />  <line x1=""0"" y1=""250"" x2=""1000"" y2=""250"" style=""stroke:red;stroke-width:2"" />  <image x=""555.677"" y=""161.35399999999998"" width=""88.646"" height=""88.646"" style:""block: inline"" xlink:href=""/static/images/Nickel.png""></image>    <circle cx=""600"" cy=""205.677"" r=""44.323"" stroke=""red"" stroke-width=""2"" fill-opacity=""0"" /></svg>",1,,6
,,,15,,,,,,,101708,,,0.0-5.0-0.0,32,3190,,16,A12A5GVJX5RZC4:3X87C8JFV7T268GX07K810V54DZSQA,,,,html-keyboard-response,,,"[u""<p>We will now continue to the main task.</p>    <p align='center'><i>Press the space bar to continue.</i></p>""]",1,,6
,,,16,,,,,,,120922,,,0.0-5.0-1.0,32,19214,,17,A12A5GVJX5RZC4:3X87C8JFV7T268GX07K810V54DZSQA,,,,html-keyboard-response,,,"[u""<div class = 'center'><p>You will be presented with rapidly       changing patterns of rectangles. Through these rectangles, female faces will appear. Your task will be to indicate the location of       the faces, or any part of them, as soon as they appear.</p>      <p align='center'><i>Press the space bar to continue.</i></p></div>""]",1,,6
,,,17,,,,,,,133392,,,0.0-5.0-2.0,32,12470,,18,A12A5GVJX5RZC4:3X87C8JFV7T268GX07K810V54DZSQA,,,,html-keyboard-response,,,"[u""<div class = 'center'><p>If a woman's face appeared in the right half       of the screen, press the right key. If a woman's face appeared in the left half       of the screen, press the left key.</p>      <p align='center'><i>Press the space bar to continue.</i></p></div>""]",1,,6
,,,18,,,,,,,135288,,,0.0-5.0-3.0,32,1895,,19,A12A5GVJX5RZC4:3X87C8JFV7T268GX07K810V54DZSQA,,,,html-keyboard-response,,,"[u""<div class = 'center'><p>Please perform this task as accurately       and quickly as you can.</p>      <p align='center'><i>Press the space bar to continue.</i></p></div>""]",1,,6
,,,19,,,,,,,158933,,,0.0-5.0-4.0,32,23644,,20,A12A5GVJX5RZC4:3X87C8JFV7T268GX07K810V54DZSQA,,,,html-keyboard-response,,,"[u""<div class = 'center'><p>During the task, please focus your gaze at       the plus sign in the middle.<br>Even though the faces appear to the left        and right of the plus sign, it is important that you look at the plus         sign at all times.</p>        <p align='center'></i>Press the space bar to continue.</i></p></div>""]",1,,6
,,,20,,,,,,,168899,,,0.0-5.0-5.0,68,9965,,21,A12A5GVJX5RZC4:3X87C8JFV7T268GX07K810V54DZSQA,,,,html-keyboard-response,,,"[u""<div class='center'>      <img src='/static/images/keys.jpg'></img>      <p>Place your fingers on the 'D' and 'K' keys as shown in the picture,       and press either one of these keys to continue.</p></div>""]",1,,6
,,,21,,,,,,,168900,,,0.0-6.0-0.0,,,,22,A12A5GVJX5RZC4:3X87C8JFV7T268GX07K810V54DZSQA,,,,html-keyboard-response,,,,1,,6
,,,47,,,,,,,278763,,,0.0-7.0-0.0,68,8259,,23,A12A5GVJX5RZC4:3X87C8JFV7T268GX07K810V54DZSQA,,,,html-keyboard-response,,,"[u""<div class = 'center'><p>You have completed the practice block.</p>  <p>You will now continue with the same task. The task may now be more   difficult.  You will have 3 short breaks. </p>    <p>Press either the 'D' or the 'K' keys to continue.</p></div>""]",1,,6
,,,48,,,,,,,288241,,,0.0-7.0-1.0,68,9477,,24,A12A5GVJX5RZC4:3X87C8JFV7T268GX07K810V54DZSQA,,,,html-keyboard-response,,,"[u""<div class = 'center'><p>During the task, please focus your gaze at   the plus sign in the middle.<br>Even though the faces appear to the left    and right of the plus sign, it is important that you look at the plus     sign at all times.</p>    <p>Press either the 'D' or the 'K' keys to continue.</p></div>""]",1,,6
,,,99,,,,,,,467605,,,0.0-8.0-100.0,32,15610,,25,A12A5GVJX5RZC4:3X87C8JFV7T268GX07K810V54DZSQA,,,,html-keyboard-response,,,"[u""<div class = 'center'><p>This is a break.</p>  <p>Press the space bar to continue.</p>""]",1,,6
,,,150,,,,,,,652320,,,0.0-8.0-202.0,32,22754,,26,A12A5GVJX5RZC4:3X87C8JFV7T268GX07K810V54DZSQA,,,,html-keyboard-response,,,"[u""<div class = 'center'><p>This is a break.</p>  <p>Press the space bar to continue.</p>""]",1,,6
,,,201,,,,,,,820487,,,0.0-8.0-304.0,32,14218,,27,A12A5GVJX5RZC4:3X87C8JFV7T268GX07K810V54DZSQA,,,,html-keyboard-response,,,"[u""<div class = 'center'><p>This is a break.</p>  <p>Press the space bar to continue.</p>""]",1,,6
,,,252,,,,,,,976719,,,0.0-9.0,32,5732,,28,A12A5GVJX5RZC4:3X87C8JFV7T268GX07K810V54DZSQA,,,,html-keyboard-response,,,"<div class='center'>You have completed this part of the study.    <p>You will now answer several questions. Please answer them sincerely,     we remind you that your answers are completely annonymous.</p>    <p align='center'><i>Press the space bar to continue.</i></p></div>",1,,6
,,,253,,,,,,,988450,,,0.0-10.0,,11729,"{""Q0"":""38"",""Q1"":""no""}",29,A12A5GVJX5RZC4:3X87C8JFV7T268GX07K810V54DZSQA,,,,survey-text,,,,1,,6
,,,254,,,,,,,994955,,,0.0-11.0,,6502,"{""Q0"":""Male"",""Q1"":""Right"",""Q2"":""Yes""}",30,A12A5GVJX5RZC4:3X87C8JFV7T268GX07K810V54DZSQA,,,,survey-multi-choice,,,,1,,6
,,,255,,,,,,,998816,,,0.0-12.0,,3859,"{""Q0"":4}",31,A12A5GVJX5RZC4:3X87C8JFV7T268GX07K810V54DZSQA,,,,survey-likert,,,,1,,6
,,,256,,,,,,,1021312,,,0.0-13.0,,22495,"{""Q0"":""no, I just tried to look at the plus ""}",32,A12A5GVJX5RZC4:3X87C8JFV7T268GX07K810V54DZSQA,,,,survey-text,,,,1,,6
,,,257,,,,,,,1028362,,,0.0-14.0,,7046,"{""Q0"":""Heterosexual or straight"",""Q1"":""Only attracted to females""}",33,A12A5GVJX5RZC4:3X87C8JFV7T268GX07K810V54DZSQA,,,,survey-multi-choice,,,,1,,6
,,,258,,,,,,,1034742,,,0.0-15.0,32,6379,,34,A12A5GVJX5RZC4:3X87C8JFV7T268GX07K810V54DZSQA,,,,html-keyboard-response,,,"<div class='center'><p>You will now be presented with a few more statements.	Please read each statement carfully, and indicate the degree to which you agree or disagree with it.</p>    <p>We remind you that your answers are completely annonymous.</p>    <p align='center'><i>Press the space bar to continue.</i></p></div>",1,,6
,,,259,,,,,,Gun control,1042539,,,0.0-16.0,,7796,"{""Q0"":1}",35,A12A5GVJX5RZC4:3X87C8JFV7T268GX07K810V54DZSQA,,True,,survey-likert,,,,1,,6
,,,260,,,,,,Stem Cell,1047269,,,0.0-17.0,,4728,"{""Q0"":6}",36,A12A5GVJX5RZC4:3X87C8JFV7T268GX07K810V54DZSQA,,True,,survey-likert,,,,1,,6
,,,261,,,,,,Death penalty,1051877,,,0.0-18.0,,4606,"{""Q0"":4}",37,A12A5GVJX5RZC4:3X87C8JFV7T268GX07K810V54DZSQA,,False,,survey-likert,,,,1,,6
,,,262,,,,,,Environment laws,1062287,,,0.0-19.0,,10409,"{""Q0"":2}",38,A12A5GVJX5RZC4:3X87C8JFV7T268GX07K810V54DZSQA,,False,,survey-likert,,,,1,,6
,,,263,,,,,,Affirmative action,1067217,,,0.0-20.0,,4928,"{""Q0"":3}",39,A12A5GVJX5RZC4:3X87C8JFV7T268GX07K810V54DZSQA,,True,,survey-likert,,,,1,,6
,,,264,,,,,,Abortion,1073417,,,0.0-21.0,,6199,"{""Q0"":6}",40,A12A5GVJX5RZC4:3X87C8JFV7T268GX07K810V54DZSQA,,True,,survey-likert,,,,1,,6
,,,265,,,,,,Homosexuals,1079477,,,0.0-22.0,,6058,"{""Q0"":6}",41,A12A5GVJX5RZC4:3X87C8JFV7T268GX07K810V54DZSQA,,True,,survey-likert,,,,1,,6
,,,266,,,,,,Iraq,1085648,,,0.0-23.0,,6170,"{""Q0"":3}",42,A12A5GVJX5RZC4:3X87C8JFV7T268GX07K810V54DZSQA,,True,,survey-likert,,,,1,,6
,,,267,,,,,,,1088984,,,0.0-24.0,,3334,"{""Q0"":""Yes""}",43,A12A5GVJX5RZC4:3X87C8JFV7T268GX07K810V54DZSQA,,,,survey-multi-choice,,,,1,,6
,,,268,,,,,,,1093513,,,0.0-25.0-0.0,,4527,"{""Q0"":5}",44,A12A5GVJX5RZC4:3X87C8JFV7T268GX07K810V54DZSQA,,,,survey-likert,,,,1,,6
,,,269,,,,,,,1105791,,,0.0-25.0-1.0,,12277,"{""Q0"":""0""}",45,A12A5GVJX5RZC4:3X87C8JFV7T268GX07K810V54DZSQA,,,,survey-text,,,,1,,6
,,,270,,,,,,,1115642,,,0.0-26.0,,9850,"{""Q0"":""0""}",46,A12A5GVJX5RZC4:3X87C8JFV7T268GX07K810V54DZSQA,,,,survey-text,,,,1,,6
,,,271,,,,,,,1125840,,,0.0-27.0,32,10198,,47,A12A5GVJX5RZC4:3X87C8JFV7T268GX07K810V54DZSQA,,,,html-keyboard-response,,,"<div class=""center"">Thank you for participating in this study!<p>    In this study we were interested in examining reaction-times and     precision in a dynamic environment.</p>    <p>Once you press the space bar, your results will be uploaded to the     server, and the HIT will complete. <b>This may take several minutes - do not     refresh or close your browser during this time.</b></p>    <p>Press the space bar to complete this HIT.</p></div>",1,,6
1,0.4,5,0,"{u'stim_duration': [32, 33, 33, 33, 32, 33, 33, 34, 34, 34, 35, 32, 33, 33, 33, 33, 34, 33, 33, 33, 33, 17, 33, 33, 33, 33, 34, 35, 33, 34, 33, 32, 34, 32, 33, 34, 34, 34, 32, 17, 0], u'mond_duration': [42, 67, 67, 67, 68, 67, 67, 66, 67, 66, 65, 66, 68, 67, 67, 67, 66, 67, 67, 67, 67, 84, 66, 66, 68, 66, 68, 65, 66, 67, 66, 67, 67, 67, 68, 66, 66, 67, 67, 83, None], u'nums': [0, 1, 2, 3, 4, 5, 6, 7, 8, 9, 10, 11, 12, 13, 14, 15, 16, 17, 18, 19, 20, 21, 22, 23, 24, 25, 26, 27, 28, 29, 30, 31, 32, 33, 34, 35, 36, 37, 38, 39, 40]}",,900,0,100,,4934,1,0,0.0-0.0-0.0,-1,-1,,1,A12ASB8854TT4:3KOPY89HM9KH04R5F2ZYWRB71F8J3B,4,,0,bRMS-test,1531598437190,,../static/images/f266.jpg,1,15,7
1,0.4,5,1,"{u'stim_duration': [35, 34, 34, 34, 33, 16, 16, 16, 33, 18, 33, 33, 16, 49, 17, 33, 34, 17, 33, 33, 50, 32, 18, 35, 33, 34, 17, 33, 33, 33, 17, 16, 33, 34, 33, 33, 34, 33, 34, None], u'mond_duration': [65, 65, 65, 50, 66, 84, 84, 84, 67, 83, 67, 66, 84, 67, 68, 67, 66, 83, 66, 84, 50, 51, 83, 65, 83, 50, 83, 67, 66, 67, 84, 83, 84, 66, 50, 68, 66, 67, 66, 83], u'nums': [0, 1, 2, 3, 4, 5, 6, 7, 8, 9, 10, 11, 12, 13, 14, 15, 16, 17, 18, 19, 20, 21, 22, 23, 24, 25, 26, 27, 28, 29, 30, 31, 32, 33, 34, 35, 36, 37, 38, 39]}",,900,0,100,,9859,1,0,0.0-0.0-1.0,-1,-1,,2,A12ASB8854TT4:3KOPY89HM9KH04R5F2ZYWRB71F8J3B,4,,0,bRMS-test,1531598442126,,../static/images/f185.jpg,1,15,7
1,0.4,5,2,"{u'stim_duration': [32, 36, 34, 15, 33, 34, 37, 33, 17, 15, 33, 33, 32, 34, 34, 33, 33, 33, 34, 34, 33, 34, 33, 33, 32, 33, 17, 33, 34, 33, 32, 33, 33, 34, 34, 33, 34, 33, 51, None], u'mond_duration': [67, 81, 65, 67, 68, 83, 66, 63, 67, 84, 85, 67, 67, 67, 65, 68, 67, 67, 66, 66, 67, 66, 66, 67, 68, 67, 67, 84, 66, 67, 67, 68, 50, 82, 67, 67, 66, 66, 50, 66], u'nums': [0, 1, 2, 3, 4, 5, 6, 7, 8, 9, 10, 11, 12, 13, 14, 15, 16, 17, 18, 19, 20, 21, 22, 23, 24, 25, 26, 27, 28, 29, 30, 31, 32, 33, 34, 35, 36, 37, 38, 39]}",,900,0,100,,14784,0,0,0.0-0.0-2.0,-1,-1,,3,A12ASB8854TT4:3KOPY89HM9KH04R5F2ZYWRB71F8J3B,4,,0,bRMS-test,1531598447123,,../static/images/f045.jpg,1,15,7
,,,3,,,,,,,19294,,,0.0-2.0,,,,4,A12ASB8854TT4:3KOPY89HM9KH04R5F2ZYWRB71F8J3B,,,,fullscreen,,True,,1,,7
,,,4,,,,,,,23407,,,0.0-3.0-0.0,32,4112,,5,A12ASB8854TT4:3KOPY89HM9KH04R5F2ZYWRB71F8J3B,,,,html-keyboard-response,,,"[u""<div class='center'>Welcome to the study!<br>     <p>Your participation will help us investigate human precision and reaction-times in dynamic environments.</p>    <p>Please read the instructions carefully.</p>    <p align='center'><i>Press the space bar to continue.</i></p></div>""]",1,,7
,,,5,,,,,,,28637,,,0.0-3.0-1.0,32,5229,,6,A12ASB8854TT4:3KOPY89HM9KH04R5F2ZYWRB71F8J3B,,,,html-keyboard-response,,,"[u""<div class='center'><p>We will begin by calibrating the experiment       for the size of your screen.</p>      <p>After this short calibration, we will continue to the main task for       this study.</p>      <p align='center'><i>Press the space bar to continue.</i></p></div>""]",1,,7
,,,6,,,,,,,31292,,,0.0-3.0-2.0,32,2652,,7,A12ASB8854TT4:3KOPY89HM9KH04R5F2ZYWRB71F8J3B,,,,html-keyboard-response,,,"[u""<div class='center'><p>For the calibration stage, you will need a coin.</p>      <p>Any US coin will do.</p>      <p align='center'><i>Press the space bar to continue.</i></p></div>""]",1,,7
,,,7,,,,,,,36349,,,0.0-3.0-3.0,32,5055,,8,A12ASB8854TT4:3KOPY89HM9KH04R5F2ZYWRB71F8J3B,,,,html-keyboard-response,,,"[u""<div class='center'><img src='/static/images/coin_demo.jpg' height='400'></img>      <p>You will be asked to position the coin      as shown in the picture. You will place it against your screen,      within an empty circle presented to you.</p>      <p align='center'><i>Press the space bar to continue.</i></p></div>""]",1,,7
